Time (s),Acceleration x (m/s^2),Acceleration y (m/s^2),Acceleration z (m/s^2),Absolute acceleration (m/s^2)
0,9.808777809,0.007776673,-0.369092882,9.815722701
0.017441206,9.814760208,0.002991028,-0.412163705,9.823411109
0.019807977,9.800403595,0.026919255,-0.373878539,9.807569548
0.022174018,9.853045464,-0.006580262,-0.345164657,9.859091583
0.02454032,9.833903313,-0.016151553,-0.321236432,9.83916196
0.026905685,9.843474388,-0.035294134,-0.345164657,9.84958742
0.029271675,9.80997467,0.022133609,-0.335593373,9.815738171
0.031638654,9.819545746,0.022133609,-0.369092882,9.826504877
0.034005112,9.79083252,0.002991028,-0.373878539,9.797968949
0.036371154,9.800403595,-0.016151553,-0.397806764,9.808487229
0.038736831,9.843474388,0.002991028,-0.383449823,9.850940602
0.041102873,9.80997467,0.017347964,-0.38823548,9.817669315
0.043468393,9.79083252,0.007776673,-0.378664196,9.798155361
0.045834018,9.824331284,0.017347964,-0.393021107,9.832204825
0.048200008,9.805189133,-0.001794617,-0.335593373,9.810930642
0.050566466,9.795618057,-0.011365907,-0.402592421,9.803894275
0.052932143,9.814760208,0.002991028,-0.407378048,9.823211479
0.05529782,9.79083252,0.017347964,-0.34037903,9.796762744
0.057663914,9.83868885,0.002991028,-0.330807716,9.844249133
0.060030789,9.79083252,0.017347964,-0.359521598,9.797446512
0.062397456,9.819545746,0.031704899,-0.359521598,9.826176247
0.064763966,9.829116821,0.017347964,-0.326022089,9.834537551
0.0671298,9.824331284,0.031704899,-0.35473597,9.830784708
0.069495633,9.829116821,-0.020937199,-0.378664196,9.83643037
0.071861779,9.786046028,-0.001794617,-0.369092882,9.793004117
0.074228393,9.805189133,0.036490545,-0.393021107,9.813130544
0.076594643,9.814760208,0.007776673,-0.345164657,9.820830772
0.07896105,9.819545746,-0.030508488,-0.316450804,9.824690862
0.081327195,9.829116821,0.002991028,-0.35473597,9.83551646
0.083693029,9.800403595,0.007776673,-0.402592421,9.808672273
0.086059175,9.776474953,0.022133609,-0.383449823,9.784016873
0.088425893,9.78126049,0.002991028,-0.349950314,9.787519142
0.090792352,9.819545746,-0.001794617,-0.402592421,9.827795406
0.09315855,9.800403595,0.036490545,-0.359521598,9.807063677
0.095524383,9.786046028,0.036490545,-0.369092882,9.793071938
0.097890112,9.771689415,0.012562319,-0.378664196,9.779031568
0.100255841,9.824331284,0.012562319,-0.373878539,9.831450968
0.10262157,9.83868885,0.002991028,-0.349950314,9.844910993
0.104987716,9.80997467,0.017347964,-0.349950314,9.816229888
0.107353602,9.833903313,-0.016151553,-0.378664196,9.841204287
0.109719279,9.814760208,0.002991028,-0.378664196,9.822062587
0.112084383,9.824331284,-0.011365907,-0.349950314,9.830568629
0.11445006,9.80997467,-0.001794617,-0.349950314,9.816214722
0.116816362,9.795618057,0.007776673,-0.397806764,9.803695417
0.119182404,9.805189133,0.031704899,-0.373878539,9.812365886
0.12154855,9.829116821,-0.011365907,-0.38823548,9.836787761
0.123914175,9.76211834,-0.001794617,-0.397806764,9.770220464
0.12628032,9.78126049,0.017347964,-0.369092882,9.78823719
0.128645633,9.843474388,0.012562319,-0.364307255,9.850221602
0.131011623,9.824331284,-0.016151553,-0.364307255,9.831096878
0.13337782,9.824331284,-0.006580262,-0.407378048,9.832776075
0.135744018,9.819545746,0.007776673,-0.407378048,9.827995523
0.13811006,9.83868885,-0.006580262,-0.35473597,9.845084012
0.14047631,9.853045464,0.017347964,-0.349950314,9.859273355
0.142841987,9.843474388,-0.011365907,-0.383449823,9.850946705
0.145208029,9.80997467,0.022133609,-0.359521598,9.81658539
0.147573966,9.833903313,-0.016151553,-0.378664196,9.841204287
0.149939956,9.79083252,-0.035294134,-0.38823548,9.798590403
0.15230532,9.814760208,-0.025722843,-0.35473597,9.821202432
0.154670685,9.848259926,-0.035294134,-0.335593373,9.854039383
0.157035945,9.819545746,0.022133609,-0.345164657,9.825635206
0.159401883,9.853045464,-0.006580262,-0.402592421,9.86126913
0.161768185,9.80997467,0.017347964,-0.369092882,9.816930963
0.164134435,9.786046028,-0.011365907,-0.378664196,9.793375956
0.166500216,9.771689415,0.026919255,-0.402592421,9.780016325
0.168866206,9.800403595,-0.006580262,-0.431306273,9.809891897
0.171231987,9.79083252,-0.020937199,-0.359521598,9.797453525
0.173597508,9.80997467,-0.020937199,-0.364307255,9.816759199
0.175962977,9.814760208,-0.011365907,-0.383449823,9.822254369
0.178329018,9.843474388,0.002991028,-0.345164657,9.849524639
0.180694331,9.829116821,0.026919255,-0.330807716,9.834718902
0.183059643,9.800403595,-0.035294134,-0.364307255,9.807235904
0.185425425,9.776474953,-0.011365907,-0.373878539,9.783628
0.187790841,9.819545746,0.002991028,-0.345164657,9.825610731
0.190156831,9.80997467,0.012562319,-0.321236432,9.815240888
0.192522716,9.829116821,0.017347964,-0.397806764,9.837178897
0.194888498,9.862616539,-0.006580262,-0.373878539,9.869702805
0.197253966,9.83868885,-0.011365907,-0.359521598,9.84526197
0.199619383,9.824331284,-0.016151553,-0.359521598,9.830920701
0.201984487,9.805189133,0.026919255,-0.383449823,9.812720945
0.204349695,9.795618057,0.031704899,-0.378664196,9.802985509
0.206715477,9.786046028,0.002991028,-0.369092882,9.79300441
0.209080477,9.819545746,-0.011365907,-0.378664196,9.826850686
0.211446518,9.819545746,-0.011365907,-0.383449823,9.827036257
0.213812143,9.819545746,0.007776673,-0.383449823,9.827032762
0.21617756,9.829116821,0.007776673,-0.383449823,9.836596552
0.218543185,9.80997467,0.017347964,-0.373878539,9.817112057
0.220909435,9.80997467,0.007776673,-0.349950314,9.816217639
0.223274852,9.766903877,0.017347964,-0.369092882,9.773890825
0.225640789,9.814760208,0.026919255,-0.359521598,9.821379657
0.228006154,9.829116821,0.022133609,-0.364307255,9.835890766
0.230371206,9.829116821,0.017347964,-0.330807716,9.834697361
0.23273631,9.862616539,-0.016151553,-0.34037903,9.868501596
0.235102664,9.819545746,0.002991028,-0.393021107,9.827408264
0.23746907,9.829116821,-0.001794617,-0.393021107,9.836971399
0.239835373,9.829116821,0.012562319,-0.335593373,9.834852221
0.24220157,9.766903877,0.046061836,-0.38823548,9.774725563
0.244567195,9.829116821,0.017347964,-0.416949332,9.837971599
0.246932925,9.819545746,-0.025722843,-0.364307255,9.826335029
0.249297768,9.814760208,0.002991028,-0.373878539,9.821879253
0.251662768,9.80997467,0.002991028,-0.393021107,9.817844854
0.254028758,9.795618057,-0.020937199,-0.369092882,9.802591547
0.256394539,9.819545746,0.031704899,-0.369092882,9.826531098
0.258760789,9.819545746,-0.001794617,-0.393021107,9.827407973
0.261126623,9.795618057,0.007776673,-0.34037903,9.801533119
0.263492925,9.814760208,0.031704899,-0.373878539,9.821929968
0.265858758,9.80997467,0.002991028,-0.35473597,9.816386789
0.268224435,9.795618057,0.007776673,-0.38823548,9.803311705
0.270590893,9.814760208,0.012562319,-0.34037903,9.820668696
0.272956831,9.829116821,0.022133609,-0.316450804,9.834234515
0.275322456,9.805189133,-0.016151553,-0.373878539,9.812327958
0.277688654,9.786046028,-0.030508488,-0.393021107,9.793982501
0.2800548,9.829116821,0.007776673,-0.393021107,9.836974309
0.282420737,9.819545746,0.002991028,-0.378664196,9.826844569
0.284786206,9.872187614,-0.030508488,-0.364307255,9.878954339
0.287152248,9.833903313,0.012562319,-0.335593373,9.839635922
0.289517612,9.79083252,-0.011365907,-0.35473597,9.797263302
0.29188355,9.776474953,-0.020937199,-0.393021107,9.784394026
0.294249748,9.766903877,-0.011365907,-0.426520646,9.776219126
0.296615477,9.80997467,-0.006580262,-0.35473597,9.816388539
0.29898105,9.80997467,-0.011365907,-0.349950314,9.816221138
0.301346623,9.80997467,-0.006580262,-0.349950314,9.816216764
0.303712352,9.814760208,-0.016151553,-0.383449823,9.822261073
0.306077925,9.819545746,-0.016151553,-0.364307255,9.826314635
0.308443393,9.819545746,-0.001794617,-0.364307255,9.826301525
0.310809175,9.814760208,0.012562319,-0.402592421,9.823021756
0.31317506,9.829116821,0.007776673,-0.364307255,9.835868937
0.315541258,9.79083252,0.002991028,-0.35473597,9.797257166
0.317906623,9.843474388,0.002991028,-0.349950314,9.849693508
0.320272248,9.843474388,-0.001794617,-0.373878539,9.85057239
0.322636883,9.83868885,-0.001794617,-0.345164657,9.844741752
0.325002404,9.872187614,0.017347964,-0.373878539,9.879280055
0.327368706,9.819545746,0.002991028,-0.38823548,9.827218039
0.329734383,9.795618057,0.031704899,-0.378664196,9.802985509
0.332099487,9.800403595,0.002991028,-0.412163705,9.809067157
0.334464956,9.771689415,0.002991028,-0.373878539,9.778839815
0.336830945,9.786046028,0.022133609,-0.38823548,9.793769119
0.339196779,9.800403595,-0.016151553,-0.359521598,9.807009089
0.341562664,9.829116821,-0.030508488,-0.402592421,9.837405599
0.343928289,9.824331284,-0.001794617,-0.383449823,9.831811743
0.346294539,9.819545746,0.017347964,-0.35473597,9.825966477
0.348660477,9.80997467,-0.011365907,-0.345164657,9.816051694
0.35102605,9.829116821,0.022133609,-0.34037903,9.835033567
0.353391727,9.819545746,0.002991028,-0.35473597,9.825951619
0.355757091,9.79083252,0.017347964,-0.373878539,9.797983851
0.358122925,9.83868885,0.017347964,-0.373878539,9.845805422
0.36048881,9.805189133,0.022133609,-0.35473597,9.811628888
0.362854227,9.805189133,0.022133609,-0.330807716,9.810792912
0.365220216,9.805189133,-0.001794617,-0.34037903,9.811095506
0.367586258,9.80997467,0.022133609,-0.359521598,9.81658539
0.369952195,9.83868885,0.022133609,-0.402592421,9.846947184
0.37231782,9.814760208,0.031704899,-0.421734989,9.823868054
0.374682873,9.824331284,0.026919255,-0.369092882,9.831298967
0.377048081,9.824331284,-0.006580262,-0.359521598,9.830909635
0.379413393,9.814760208,0.017347964,-0.373878539,9.821894118
0.381779123,9.79083252,0.007776673,-0.383449823,9.798341475
0.384144956,9.80997467,0.007776673,-0.378664196,9.817283233
0.38651032,9.814760208,0.002991028,-0.349950314,9.820997511
0.38887657,9.819545746,0.012562319,-0.364307255,9.826309391
0.391242248,9.824331284,0.026919255,-0.369092882,9.831298967
0.393608081,9.819545746,0.026919255,-0.38823548,9.827254453
0.395973706,9.805189133,0.012562319,-0.373878539,9.812322707
0.398338966,9.83868885,-0.006580262,-0.373878539,9.845792338
0.400704539,9.867402077,0.036490545,-0.359521598,9.874016968
0.403070216,9.829116821,-0.001794617,-0.364307255,9.835866026
0.405435373,9.833903313,-0.044865426,-0.38823548,9.841666224
0.407801102,9.786046028,-0.025722843,-0.416949332,9.794958156
0.410166623,9.819545746,0.012562319,-0.440877587,9.829446043
0.412532091,9.819545746,0.031704899,-0.402592421,9.827846382
0.414897664,9.795618057,0.002991028,-0.407378048,9.804085829
0.41726381,9.79083252,0.046061836,-0.416949332,9.799814787
0.419630216,9.819545746,-0.030508488,-0.393021107,9.827455165
0.421996258,9.833903313,-0.001794617,-0.335593373,9.839628067
0.424361987,9.819545746,0.002991028,-0.349950314,9.825780011
0.426728081,9.843474388,-0.001794617,-0.383449823,9.850940311
0.429093445,9.814760208,-0.011365907,-0.359521598,9.821349342
0.431459539,9.795618057,0.002991028,-0.349950314,9.801867541
0.433825529,9.819545746,-0.006580262,-0.412163705,9.828194182
0.436191102,9.78126049,0.002991028,-0.412163705,9.789940993
0.438556883,9.805189133,-0.006580262,-0.345164657,9.811264744
0.440922873,9.833903313,-0.025722843,-0.345164657,9.839992615
0.44328782,9.853045464,0.012562319,-0.393021107,9.860888819
0.445653966,9.829116821,0.002991028,-0.321236432,9.83436522
0.448019383,9.862616539,0.007776673,-0.35473597,9.868997066
0.450384175,9.79083252,0.002991028,-0.397806764,9.798911194
0.452749643,9.757332802,0.017347964,-0.416949332,9.766252664
0.455115737,9.757332802,0.002991028,-0.383449823,9.76486488
0.4574823,9.79083252,-0.001794617,-0.330807716,9.796419672
0.459847716,9.78126049,0.017347964,-0.35473597,9.787706337
0.462212873,9.795618057,-0.011365907,-0.35473597,9.802045701
0.464578185,9.814760208,0.012562319,-0.34037903,9.820668696
0.466943602,9.824331284,0.031704899,-0.364307255,9.831134733
0.469309279,9.824331284,0.002991028,-0.38823548,9.831999843
0.471674748,9.80997467,0.007776673,-0.359521598,9.816563517
0.474040373,9.78126049,0.017347964,-0.402592421,9.78955762
0.476407143,9.814760208,0.026919255,-0.38823548,9.822472671
0.478773654,9.862616539,-0.025722843,-0.316450804,9.867725562
0.481139539,9.872187614,-0.011365907,-0.330807716,9.877735126
0.483506102,9.83868885,-0.001794617,-0.369092882,9.845609736
0.485872143,9.800403595,0.002991028,-0.407378048,9.808867236
0.48823782,9.786046028,-0.006580262,-0.43609193,9.79576012
0.490603654,9.78126049,0.026919255,-0.35473597,9.787727981
0.492969904,9.79083252,0.036490545,-0.349950314,9.797152556
0.495335373,9.79083252,0.012562319,-0.38823548,9.798534892
0.497700633,9.824331284,-0.006580262,-0.369092882,9.831264315
0.500067039,9.814760208,-0.030508488,-0.359521598,9.821390151
0.502432716,9.819545746,-0.016151553,-0.335593373,9.825291977
0.504798237,9.819545746,0.022133609,-0.349950314,9.825804485
0.507164383,9.752547264,0.04127619,-0.383449823,9.760169857
0.509530268,9.747760773,0.017347964,-0.393021107,9.755696112
0.511896362,9.766903877,0.002991028,-0.412163705,9.775597128
0.514262664,9.824331284,0.04127619,-0.369092882,9.83134876
0.516628393,9.848259926,0.036490545,-0.345164657,9.854374347
0.518994018,9.867402077,-0.001794617,-0.349950314,9.873605835
0.521359487,9.83868885,-0.016151553,-0.383449823,9.846171486
0.52372532,9.829116821,-0.016151553,-0.345164657,9.835188712
0.52609157,9.78126049,0.017347964,-0.369092882,9.78823719
0.52845782,9.83868885,-0.006580262,-0.383449823,9.846160438
0.530824123,9.83868885,-0.011365907,-0.373878539,9.845796699
0.533189695,9.824331284,0.002991028,-0.378664196,9.831626554
0.535555789,9.829116821,0.017347964,-0.38823548,9.836796492
0.537921883,9.819545746,0.022133609,-0.397806764,9.827625287
0.5402873,9.795618057,-0.001794617,-0.383449823,9.803120427
0.542653133,9.79083252,-0.006580262,-0.349950314,9.797086809
0.545018393,9.795618057,0.022133609,-0.402592421,9.803912672
0.547383081,9.738189697,0.026919255,-0.349950314,9.744512735
0.549749018,9.805189133,0.007776673,-0.373878539,9.812317747
0.552115216,9.805189133,0.007776673,-0.364307255,9.811957714
0.554481362,9.80997467,0.031704899,-0.34037903,9.815929203
0.556847456,9.848259926,0.007776673,-0.35473597,9.854649748
0.559213133,9.795618057,0.002991028,-0.35473597,9.802039567
0.561578914,9.857831001,0.007776673,-0.359521598,9.864387883
0.563945737,9.83868885,-0.030508488,-0.35473597,9.845129084
0.566311987,9.814760208,-0.020937199,-0.38823548,9.822458099
0.568677716,9.853045464,0.04127619,-0.345164657,9.859175791
0.571043758,9.795618057,0.012562319,-0.330807716,9.801210368
0.573409643,9.76211834,0.007776673,-0.364307255,9.768916763
0.57577532,9.795618057,-0.025722843,-0.455234498,9.806224209
0.578140216,9.824331284,-0.030508488,-0.359521598,9.830954771
0.5805048,9.79083252,-0.04007978,-0.349950314,9.797166582
0.582870268,9.786046028,-0.001794617,-0.369092882,9.793004117
0.585235893,9.73340416,0.036490545,-0.378664196,9.740835419
0.587601883,9.76211834,0.046061836,-0.378664196,9.769568196
0.5899673,9.766903877,0.007776673,-0.373878539,9.774060414
0.592332977,9.83868885,0.007776673,-0.345164657,9.84474466
0.594698966,9.800403595,-0.016151553,-0.359521598,9.807009089
0.597063758,9.833903313,0.031704899,-0.35473597,9.84035046
0.599428862,9.857831001,0.022133609,-0.35473597,9.86423639
0.60179381,9.843474388,0.002991028,-0.330807716,9.849031969
0.604158758,9.843474388,-0.030508488,-0.383449823,9.85098739
0.60652381,9.824331284,0.007776673,-0.38823548,9.832002463
0.608889018,9.80997467,-0.011365907,-0.364307255,9.816743452
0.611253914,9.80997467,-0.011365907,-0.416949332,9.818837964
0.613619591,9.814760208,0.002991028,-0.412163705,9.823411109
0.615985008,9.843474388,-0.001794617,-0.369092882,9.850391911
0.618350945,9.829116821,-0.011365907,-0.369092882,9.836050845
0.620716154,9.80997467,-0.001794617,-0.393021107,9.817844562
0.623081414,9.795618057,-0.011365907,-0.373878539,9.802757136
0.625446414,9.800403595,-0.001794617,-0.412163705,9.809066865
0.627812456,9.805189133,0.026919255,-0.383449823,9.812720945
0.630178029,9.829116821,0.017347964,-0.369092882,9.836059577
0.632543393,9.83868885,-0.001794617,-0.34037903,9.844575125
0.634909279,9.867402077,-0.006580262,-0.373878539,9.874484908
0.637274695,9.848259926,-0.030508488,-0.373878539,9.855401539
0.63964006,9.805189133,0.007776673,-0.34037903,9.811098424
0.642005737,9.833903313,-0.001794617,-0.330807716,9.839466008
0.644371623,9.819545746,0.002991028,-0.383449823,9.82703014
0.646737612,9.819545746,0.017347964,-0.369092882,9.826495263
0.649103341,9.83868885,-0.001794617,-0.359521598,9.845255573
0.651469123,9.814760208,0.012562319,-0.359521598,9.8213508
0.653835477,9.814760208,0.002991028,-0.383449823,9.822248249
0.656201206,9.862616539,0.007776673,-0.373878539,9.869703675
0.658566935,9.857831001,-0.016151553,-0.373878539,9.864931732
0.660932873,9.829116821,0.012562319,-0.38823548,9.836789216
0.663298498,9.805189133,-0.016151553,-0.383449823,9.812697314
0.665663445,9.814760208,0.012562319,-0.378664196,9.822070165
0.66802907,9.786046028,-0.030508488,-0.378664196,9.793416881
0.670395268,9.814760208,-0.006580262,-0.378664196,9.822064336
0.672761206,9.819545746,-0.011365907,-0.402592421,9.827801814
0.675127143,9.800403595,0.007776673,-0.364307255,9.807175479
0.677492925,9.80997467,0.026919255,-0.359521598,9.816597346
0.67985881,9.848259926,0.031704899,-0.349950314,9.854526574
0.68222407,9.83868885,0.046061836,-0.326022089,9.844196787
0.684589279,9.80997467,0.055633128,-0.416949332,9.818988992
0.686954487,9.848259926,-0.030508488,-0.402592421,9.856532605
0.6893198,9.833903313,0.007776673,-0.335593373,9.839630976
0.6916848,9.848259926,0.002991028,-0.345164657,9.854307239
0.694050373,9.824331284,-0.006580262,-0.369092882,9.831264315
0.696416466,9.80997467,0.036490545,-0.359521598,9.816628259
0.698782404,9.79083252,0.017347964,-0.407378048,9.799319326
0.701148185,9.805189133,0.007776673,-0.421734989,9.814257731
0.70351407,9.80997467,-0.011365907,-0.397806764,9.818043718
0.705880008,9.795618057,-0.016151553,-0.38823548,9.803321926
0.708246102,9.843474388,-0.011365907,-0.364307255,9.850220149
0.710611727,9.833903313,-0.001794617,-0.369092882,9.840827564
0.712977716,9.805189133,0.002991028,-0.321236432,9.810450332
0.715343289,9.738189697,-0.006580262,-0.369092882,9.745184012
0.717708706,9.800403595,0.017347964,-0.455234498,9.81098619
0.720074748,9.80997467,0.046061836,-0.359521598,9.816668503
0.722440477,9.843474388,-0.006580262,-0.321236432,9.84871688
0.724805893,9.843474388,-0.006580262,-0.292522579,9.847822134
0.727170945,9.848259926,0.031704899,-0.34037903,9.854191324
0.729536466,9.824331284,0.026919255,-0.402592421,9.832613614
0.731901883,9.80997467,0.012562319,-0.426520646,9.819250517
0.734267195,9.814760208,-0.001794617,-0.407378048,9.823211188
0.73663256,9.80997467,-0.030508488,-0.369092882,9.816963041
0.738997925,9.829116821,0.022133609,-0.349950314,9.83536947
0.741362873,9.805189133,-0.001794617,-0.416949332,9.814050331
0.743728289,9.829116821,-0.025722843,-0.426520646,9.838400226
0.746093498,9.824331284,0.002991028,-0.345164657,9.830393316
0.748458237,9.766903877,0.031704899,-0.364307255,9.773747302
0.75082381,9.76211834,0.007776673,-0.373878539,9.769278382
0.753190008,9.824331284,0.026919255,-0.35473597,9.830770439
0.755555529,9.805189133,0.012562319,-0.335593373,9.81093852
0.75792105,9.805189133,-0.001794617,-0.349950314,9.811432228
0.760286727,9.814760208,-0.001794617,-0.345164657,9.820827857
0.762652195,9.80997467,-0.006580262,-0.364307255,9.816739077
0.765018081,9.776474953,-0.016151553,-0.38823548,9.784193894
0.767383237,9.766903877,-0.001794617,-0.369092882,9.773875594
0.769748654,9.800403595,0.022133609,-0.349950314,9.806674551
0.772114852,9.829116821,0.007776673,-0.321236432,9.83436784
0.774480633,9.833903313,-0.011365907,-0.34037903,9.839798851
0.776847039,9.795618057,-0.011365907,-0.369092882,9.802575777
0.779213289,9.805189133,-0.030508488,-0.416949332,9.814097587
0.781578654,9.78126049,-0.025722843,-0.421734989,9.790381956
0.783944904,9.757332802,-0.006580262,-0.393021107,9.76524717
0.786310737,9.79083252,0.002991028,-0.402592421,9.799106644
0.788676206,9.80997467,0.007776673,-0.397806764,9.818040218
0.791042039,9.805189133,0.022133609,-0.35473597,9.811628888
0.793407612,9.786046028,-0.006580262,-0.349950314,9.792303375
0.795772925,9.814760208,-0.016151553,-0.35473597,9.821182028
0.798138081,9.819545746,0.022133609,-0.330807716,9.825141337
0.800503602,9.824331284,-0.001794617,-0.369092882,9.831262276
0.802868602,9.819545746,-0.001794617,-0.369092882,9.826480114
0.805234123,9.805189133,-0.001794617,-0.34037903,9.811095506
0.80760006,9.814760208,-0.016151553,-0.316450804,9.819873723
0.809965841,9.829116821,0.007776673,-0.302093863,9.833761166
0.812331362,9.843474388,-0.025722843,-0.311665148,9.848440732
0.814696518,9.843474388,0.007776673,-0.349950314,9.849696124
0.81706157,9.819545746,-0.030508488,-0.345164657,9.82565764
0.819426883,9.80997467,0.012562319,-0.326022089,9.81539868
0.821793029,9.78126049,-0.020937199,-0.330807716,9.786875339
0.824158862,9.79083252,0.007776673,-0.373878539,9.797971579
0.826523966,9.776474953,0.002991028,-0.335593373,9.782233608
0.828888758,9.795618057,-0.030508488,-0.335593373,9.80141249
0.831254227,9.824331284,0.046061836,-0.364307255,9.831191517
0.833619852,9.795618057,0.012562319,-0.397806764,9.803700381
0.835985685,9.805189133,0.007776673,-0.378664196,9.81250126
0.838351102,9.805189133,0.012562319,-0.35473597,9.811611965
0.840717456,9.78126049,0.012562319,-0.373878539,9.788411503
0.843082716,9.848259926,-0.006580262,-0.407378048,9.856684216
0.845447873,9.829116821,-0.001794617,-0.393021107,9.836971399
0.847813237,9.833903313,0.012562319,-0.369092882,9.840835418
0.850178862,9.814760208,-0.020937199,-0.421734989,9.823839204
0.852544748,9.805189133,0.026919255,-0.426520646,9.814498379
0.854910477,9.853045464,-0.006580262,-0.364307255,9.859780321
0.85727605,9.853045464,0.017347964,-0.369092882,9.85997137
0.859641466,9.795618057,0.007776673,-0.426520646,9.804902522
0.862006727,9.819545746,0.007776673,-0.393021107,9.827410886
0.864371466,9.83868885,-0.001794617,-0.369092882,9.845609736
0.8667373,9.83868885,-0.006580262,-0.378664196,9.845975227
0.869103498,9.833903313,-0.006580262,-0.373878539,9.841010254
0.871469539,9.829116821,-0.011365907,-0.335593373,9.834850766
0.873835529,9.805189133,-0.001794617,-0.407378048,9.813648354
0.876201466,9.757332802,0.017347964,-0.464805812,9.768412809
0.878567508,9.829116821,0.012562319,-0.378664196,9.836416109
0.880933498,9.814760208,-0.001794617,-0.373878539,9.821878961
0.883299643,9.853045464,0.031704899,-0.378664196,9.860370007
0.885665737,9.872187614,-0.006580262,-0.369092882,9.879087061
0.888031623,9.829116821,-0.001794617,-0.38823548,9.836781358
0.890396414,9.853045464,-0.011365907,-0.383449823,9.860510527
0.892761623,9.79083252,-0.011365907,-0.402592421,9.79911278
0.895127143,9.829116821,0.002991028,-0.393021107,9.83697169
0.897492456,9.819545746,0.002991028,-0.369092882,9.826480405
0.899857664,9.824331284,-0.006580262,-0.359521598,9.830909635
0.902223081,9.843474388,-0.020937199,-0.364307255,9.850235843
0.904589227,9.848259926,-0.006580262,-0.373878539,9.855356515
0.906954331,9.83868885,0.007776673,-0.38823548,9.846348844
0.909319331,9.79083252,-0.001794617,-0.412163705,9.799504251
0.911683966,9.78126049,-0.006580262,-0.397806764,9.789348819
0.91405006,9.738189697,0.007776673,-0.38823548,9.74592868
0.916415477,9.757332802,-0.020937199,-0.402592421,9.765657296
0.918781727,9.824331284,0.002991028,-0.378664196,9.831626554
0.921146779,9.83868885,0.007776673,-0.359521598,9.845258481
0.923512508,9.833903313,0.007776673,-0.369092882,9.840830473
0.925878029,9.862616539,0.031704899,-0.38823548,9.87030582
0.928244487,9.786046028,0.046061836,-0.402592421,9.794432052
0.93061006,9.76211834,-0.001794617,-0.397806764,9.770220464
0.932975841,9.747760773,0.017347964,-0.412163705,9.756486045
0.93534131,9.786046028,-0.011365907,-0.412163705,9.794728427
0.93770631,9.83868885,-0.011365907,-0.402592421,9.846928868
0.940071987,9.853045464,-0.020937199,-0.383449823,9.860526205
0.9424373,9.867402077,-0.020937199,-0.364307255,9.874147147
0.944803185,9.829116821,-0.011365907,-0.369092882,9.836050845
0.947168602,9.78126049,0.007776673,-0.378664196,9.788590493
0.949534123,9.78126049,-0.001794617,-0.393021107,9.789153467
0.951899643,9.76211834,0.007776673,-0.397806764,9.770223394
0.95426532,9.771689415,0.036490545,-0.43609193,9.781483617
0.956630529,9.76211834,0.022133609,-0.426520646,9.771456608
0.958996414,9.83868885,-0.020937199,-0.369092882,9.845631834
0.961361987,9.876974106,0.012562319,-0.349950314,9.883179677
0.963727925,9.848259926,0.012562319,-0.345164657,9.854314792
0.966093758,9.819545746,0.002991028,-0.35473597,9.825951619
0.968459748,9.757332802,0.017347964,-0.364307255,9.764146872
0.9708248,9.805189133,0.002991028,-0.378664196,9.812498634
0.973190373,9.829116821,-0.020937199,-0.35473597,9.83553829
0.975556102,9.824331284,0.012562319,-0.378664196,9.831634124
0.977921727,9.857831001,-0.04007978,-0.373878539,9.864999929
0.980287143,9.872187614,0.012562319,-0.397806764,9.880207302
0.982652664,9.843474388,-0.020937199,-0.349950314,9.849715306
0.985018237,9.80997467,-0.011365907,-0.407378048,9.818436184
0.987383445,9.795618057,-0.001794617,-0.421734989,9.804692588
0.989748498,9.786046028,0.04127619,-0.445663214,9.796275634
0.992114383,9.776474953,0.007776673,-0.431306273,9.785987333
0.994479956,9.814760208,0.017347964,-0.397806764,9.822834067
0.996844643,9.814760208,0.026919255,-0.378664196,9.82209902
0.999209018,9.819545746,0.026919255,-0.373878539,9.826697739
1.001574175,9.795618057,-0.006580262,-0.369092882,9.802571396
1.003939279,9.795618057,-0.025722843,-0.402592421,9.803921432
1.006304435,9.78126049,0.017347964,-0.393021107,9.789168674
1.008670112,9.76211834,-0.011365907,-0.38823548,9.769841884
1.011035529,9.805189133,-0.006580262,-0.397806764,9.813257739
1.013401414,9.824331284,0.012562319,-0.316450804,9.829434576
1.015766883,9.848259926,0.007776673,-0.311665148,9.853193351
1.018132352,9.83868885,-0.001794617,-0.349950314,9.844910702
1.020498289,9.78126049,0.017347964,-0.316450804,9.786393557
1.022863289,9.771689415,0.012562319,-0.402592421,9.779987346
1.025227873,9.795618057,0.012562319,-0.440877587,9.805542513
1.027593237,9.814760208,-0.001794617,-0.369092882,9.821697955
1.029958758,9.814760208,0.017347964,-0.359521598,9.821358087
1.032324643,9.814760208,-0.04007978,-0.38823548,9.822517555
1.034690216,9.795618057,-0.001794617,-0.373878539,9.802750711
1.037055737,9.742975235,0.002991028,-0.349950314,9.749258464
1.03942157,9.795618057,0.002991028,-0.373878539,9.802751003
1.041787612,9.766903877,-0.011365907,-0.431306273,9.776429084
1.044152873,9.829116821,0.017347964,-0.38823548,9.836796492
1.046518341,9.805189133,0.012562319,-0.373878539,9.812322707
1.048884018,9.819545746,0.012562319,-0.383449823,9.827037714
1.051249279,9.857831001,0.012562319,-0.330807716,9.863388039
1.053615164,9.829116821,-0.001794617,-0.34037903,9.835008825
1.0559798,9.833903313,0.022133609,-0.364307255,9.840673962
1.058345164,9.833903313,0.007776673,-0.393021107,9.841756979
1.060710112,9.80997467,0.007776673,-0.393021107,9.817847478
1.063076154,9.833903313,0.036490545,-0.397806764,9.842013826
1.065442248,9.814760208,0.012562319,-0.364307255,9.821527149
1.067807716,9.824331284,-0.011365907,-0.364307255,9.83109018
1.07017355,9.829116821,-0.030508488,-0.359521598,9.835737086
1.072539123,9.805189133,0.007776673,-0.393021107,9.81306578
1.074904695,9.805189133,0.017347964,-0.383449823,9.812699356
1.077270581,9.800403595,0.002991028,-0.359521598,9.806996245
1.079636206,9.80997467,0.012562319,-0.373878539,9.817104767
1.082001675,9.833903313,-0.001794617,-0.345164657,9.839959158
1.084366623,9.776474953,0.002991028,-0.369092882,9.783440141
1.086731779,9.786046028,0.002991028,-0.383449823,9.793556023
1.089097612,9.776474953,0.036490545,-0.393021107,9.78443967
1.091462143,9.79083252,-0.011365907,-0.383449823,9.798344981
1.093827977,9.843474388,-0.001794617,-0.34037903,9.849357803
1.096194018,9.824331284,0.002991028,-0.326022089,9.829739799
1.098560112,9.843474388,-0.011365907,-0.345164657,9.849530743
1.10092657,9.824331284,0.022133609,-0.349950314,9.830586976
1.103293029,9.83868885,0.007776673,-0.349950314,9.84491361
1.10565855,9.805189133,-0.001794617,-0.345164657,9.811262701
1.108024279,9.80997467,0.012562319,-0.378664196,9.817288191
1.110390216,9.824331284,0.022133609,-0.373878539,9.831467857
1.11275605,9.800403595,0.002991028,-0.364307255,9.807172852
1.115121727,9.83868885,0.012562319,-0.378664196,9.845981042
1.117487873,9.83868885,0.017347964,-0.373878539,9.845805422
1.119854018,9.814760208,0.007776673,-0.407378048,9.823214102
1.122220112,9.829116821,-0.030508488,-0.38823548,9.836828505
1.124586154,9.795618057,-0.001794617,-0.378664196,9.802934403
1.126951623,9.766903877,0.012562319,-0.407378048,9.775404137
1.129316518,9.80997467,-0.016151553,-0.393021107,9.817857684
1.131681727,9.79083252,0.002991028,-0.397806764,9.798911194
1.134046935,9.829116821,-0.001794617,-0.402592421,9.837358455
1.136413029,9.886545181,0.002991028,-0.393021107,9.894354459
1.138779487,9.857831001,0.002991028,-0.297308207,9.862313784
1.141145268,9.83868885,0.007776673,-0.345164657,9.84474466
1.143511154,9.857831001,-0.006580262,-0.383449823,9.865288091
1.145877091,9.829116821,-0.030508488,-0.35473597,9.835563322
1.14824355,9.795618057,0.002991028,-0.364307255,9.802390619
1.150610164,9.800403595,-0.001794617,-0.407378048,9.808866944
1.152976727,9.795618057,0.026919255,-0.393021107,9.803536268
1.1553423,9.814760208,-0.006580262,-0.38823548,9.822437988
1.157707768,9.848259926,-0.011365907,-0.364307255,9.855002411
1.160073341,9.867402077,0.007776673,-0.349950314,9.873608735
1.162438914,9.795618057,0.022133609,-0.345164657,9.801722382
1.164803914,9.771689415,-0.006580262,-0.412163705,9.780380169
1.167169123,9.800403595,0.017347964,-0.426520646,9.809695787
1.169534331,9.771689415,0.04127619,-0.359521598,9.778388084
1.171899748,9.776474953,-0.006580262,-0.359521598,9.783085484
1.17426532,9.805189133,-0.001794617,-0.412163705,9.813848178
1.176630581,9.862616539,0.012562319,-0.349950314,9.868831138
1.178996154,9.824331284,-0.020937199,-0.321236432,9.829604081
1.181361779,9.857831001,0.002991028,-0.359521598,9.864385271
1.18372782,9.819545746,-0.006580262,-0.378664196,9.826846316
1.186093133,9.805189133,0.012562319,-0.397806764,9.813263573
1.188459175,9.795618057,-0.001794617,-0.393021107,9.803499474
1.190824591,9.786046028,-0.001794617,-0.393021107,9.793935148
1.193189591,9.786046028,-0.016151553,-0.397806764,9.794141512
1.195555373,9.819545746,0.012562319,-0.43609193,9.829232556
1.197921362,9.829116821,0.012562319,-0.402592421,9.837366312
1.200286675,9.843474388,-0.011365907,-0.369092882,9.850398305
1.202652352,9.833903313,0.026919255,-0.349950314,9.840164848
1.205017977,9.757332802,-0.006580262,-0.373878539,9.764495474
1.207384018,9.76211834,-0.025722843,-0.416949332,9.771052292
1.209750373,9.795618057,-0.001794617,-0.364307255,9.802390327
1.212115529,9.80997467,0.007776673,-0.335593373,9.815716297
1.214481102,9.80997467,0.012562319,-0.364307255,9.81674491
1.216845945,9.800403595,-0.016151553,-0.330807716,9.805998432
1.219211466,9.805189133,-0.006580262,-0.369092882,9.812135689
1.221576466,9.800403595,-0.011365907,-0.378664196,9.807722793
1.223941206,9.805189133,-0.001794617,-0.397806764,9.813255697
1.226306258,9.80997467,0.012562319,-0.378664196,9.817288191
1.22867256,9.79083252,-0.011365907,-0.383449823,9.798344981
1.231038862,9.83868885,0.022133609,-0.421734989,9.847748402
1.233404591,9.814760208,0.026919255,-0.38823548,9.822472671
1.235770581,9.819545746,-0.006580262,-0.383449823,9.827031888
1.238136987,9.824331284,-0.016151553,-0.359521598,9.830920701
1.24050282,9.824331284,-0.030508488,-0.369092882,9.83130945
1.242868862,9.800403595,-0.025722843,-0.426520646,9.809714173
1.245234643,9.805189133,-0.011365907,-0.445663214,9.815318579
1.24760105,9.79083252,0.017347964,-0.373878539,9.797983851
1.249966831,9.814760208,0.022133609,-0.402592421,9.823038659
1.252332404,9.80997467,0.04127619,-0.38823548,9.817740756
1.254698758,9.795618057,0.002991028,-0.330807716,9.801202774
1.257065008,9.776474953,0.031704899,-0.345164657,9.782617561
1.259430789,9.805189133,0.036490545,-0.364307255,9.812022486
1.261796206,9.79083252,-0.011365907,-0.38823548,9.798533431
1.264162248,9.819545746,0.002991028,-0.359521598,9.826125553
1.266528185,9.886545181,-0.011365907,-0.335593373,9.892245838
1.26889407,9.829116821,-0.016151553,-0.378664196,9.836421348
1.271259695,9.833903313,0.012562319,-0.369092882,9.840835418
1.273626154,9.848259926,-0.006580262,-0.335593373,9.853978373
1.275991675,9.80997467,-0.006580262,-0.35473597,9.816388539
1.278356883,9.78126049,-0.020937199,-0.397806764,9.789368997
1.280722248,9.800403595,-0.025722843,-0.402592421,9.808702919
1.283088445,9.766903877,0.012562319,-0.369092882,9.773883502
1.285454018,9.79083252,0.007776673,-0.416949332,9.799709621
1.287819852,9.795618057,0.007776673,-0.421734989,9.804695508
1.290185112,9.814760208,0.002991028,-0.369092882,9.821698246
1.292550633,9.80997467,0.012562319,-0.335593373,9.815721255
1.294916987,9.80997467,-0.006580262,-0.373878539,9.817098935
1.297282873,9.833903313,-0.011365907,-0.35473597,9.840305948
1.299649123,9.829116821,-0.001794617,-0.349950314,9.835344729
1.302015685,9.819545746,0.002991028,-0.421734989,9.828598476
1.304381623,9.83868885,-0.006580262,-0.426520646,9.847931836
1.306747195,9.824331284,-0.001794617,-0.402592421,9.832576928
1.309113029,9.814760208,-0.011365907,-0.378664196,9.822068708
1.311478029,9.800403595,-0.011365907,-0.373878539,9.80753919
1.31384355,9.819545746,0.007776673,-0.373878539,9.826663945
1.316208758,9.805189133,0.012562319,-0.373878539,9.812322707
1.318574643,9.805189133,0.012562319,-0.38823548,9.812880236
1.32094006,9.824331284,-0.001794617,-0.407378048,9.832774037
1.323305893,9.83868885,-0.020937199,-0.364307255,9.845453592
1.325671675,9.824331284,-0.025722843,-0.383449823,9.831845229
1.328037716,9.80997467,-0.011365907,-0.369092882,9.816922215
1.330404018,9.795618057,0.017347964,-0.378664196,9.802949589
1.332770477,9.78126049,-0.011365907,-0.369092882,9.788228416
1.335136831,9.83868885,-0.025722843,-0.349950314,9.844944143
1.3375023,9.80997467,0.017347964,-0.349950314,9.816229888
1.339868185,9.824331284,0.017347964,-0.34037903,9.830241299
1.342234748,9.814760208,0.007776673,-0.373878539,9.821881876
1.344600737,9.800403595,0.031704899,-0.349950314,9.806700824
1.34696657,9.819545746,0.007776673,-0.38823548,9.827220661
1.349331935,9.833903313,0.022133609,-0.359521598,9.840497957
1.351697352,9.805189133,-0.011365907,-0.364307255,9.811961215
1.354063185,9.829116821,0.002991028,-0.35473597,9.83551646
1.356429591,9.843474388,-0.001794617,-0.378664196,9.850755191
1.358795529,9.824331284,-0.011365907,-0.416949332,9.833181637
1.361161518,9.83868885,0.017347964,-0.38823548,9.846361055
1.363527664,9.814760208,-0.016151553,-0.378664196,9.822075411
1.365893706,9.814760208,0.002991028,-0.412163705,9.823411109
1.3682598,9.805189133,-0.016151553,-0.393021107,9.81307599
1.37062631,9.829116821,-0.020937199,-0.335593373,9.834866484
1.372991623,9.78126049,0.007776673,-0.369092882,9.788224906
1.375356987,9.795618057,0.007776673,-0.416949332,9.804490825
1.37772282,9.771689415,0.012562319,-0.369092882,9.778665624
1.380089487,9.819545746,0.012562319,-0.292522579,9.82390991
1.382455737,9.833903313,-0.011365907,-0.321236432,9.839155268
1.38482131,9.829116821,-0.001794617,-0.345164657,9.835175613
1.387187456,9.857831001,-0.001794617,-0.335593373,9.863541868
1.389553706,9.853045464,0.022133609,-0.378664196,9.860343877
1.391919331,9.83868885,-0.001794617,-0.35473597,9.845081977
1.394284695,9.824331284,-0.025722843,-0.330807716,9.829932888
1.39665032,9.824331284,0.007776673,-0.393021107,9.832192596
1.399016414,9.80997467,-0.016151553,-0.397806764,9.818050424
1.401382039,9.78126049,-0.025722843,-0.38823548,9.78899613
1.403748185,9.805189133,0.017347964,-0.38823548,9.81288753
1.406114591,9.80997467,0.012562319,-0.397806764,9.818045175
1.408481154,9.80997467,0.002991028,-0.359521598,9.816560893
1.410847404,9.786046028,-0.011365907,-0.345164657,9.792137902
1.413213498,9.814760208,-0.011365907,-0.393021107,9.822632678
1.415579748,9.819545746,0.026919255,-0.383449823,9.827066555
1.417945841,9.79083252,-0.001794617,-0.349950314,9.797084764
1.420311831,9.829116821,0.012562319,-0.330807716,9.834690084
1.422677039,9.829116821,-0.001794617,-0.345164657,9.835175613
1.425043029,9.819545746,0.002991028,-0.364307255,9.826301816
1.427408237,9.819545746,-0.025722843,-0.383449823,9.82706335
1.42977407,9.824331284,-0.020937199,-0.38823548,9.83202168
1.43214006,9.848259926,-0.025722843,-0.35473597,9.854680251
1.434505789,9.857831001,-0.006580262,-0.335593373,9.8635439
1.436871258,9.829116821,0.031704899,-0.369092882,9.836095376
1.439237091,9.833903313,-0.020937199,-0.383449823,9.841398605
1.441603498,9.848259926,0.017347964,-0.373878539,9.855369586
1.443969331,9.795618057,0.002991028,-0.402592421,9.803888143
1.446335008,9.76211834,-0.001794617,-0.378664196,9.769459774
1.448700841,9.786046028,0.007776673,-0.345164657,9.792134394
1.451067248,9.80997467,-0.001794617,-0.335593373,9.81571338
1.453433602,9.800403595,-0.030508488,-0.373878539,9.807580056
1.455799279,9.80997467,-0.011365907,-0.38823548,9.817660567
1.458165164,9.805189133,-0.011365907,-0.369092882,9.812140066
1.460530737,9.829116821,0.002991028,-0.378664196,9.836408542
1.462896883,9.83868885,-0.001794617,-0.35473597,9.845081977
1.465263445,9.805189133,-0.016151553,-0.359521598,9.811791405
1.467629487,9.79083252,0.012562319,-0.383449823,9.798346442
1.46999532,9.853045464,0.007776673,-0.383449823,9.860507043
1.472361154,9.872187614,-0.030508488,-0.316450804,9.877305309
1.47472782,9.83868885,-0.016151553,-0.369092882,9.84562282
1.477094018,9.843474388,0.012562319,-0.373878539,9.850580237
1.479460112,9.853045464,0.002991028,-0.364307255,9.859778579
1.481825685,9.795618057,0.022133609,-0.416949332,9.804512725
1.484191206,9.795618057,-0.006580262,-0.426520646,9.804901646
1.486556623,9.805189133,0.007776673,-0.38823548,9.812875276
1.488922768,9.833903313,-0.001794617,-0.364307255,9.840649235
1.491288498,9.824331284,0.002991028,-0.335593373,9.830061904
1.493654487,9.800403595,0.002991028,-0.38823548,9.808090862
1.496020425,9.805189133,-0.011365907,-0.369092882,9.812140066
1.498385893,9.79083252,0.026919255,-0.373878539,9.798005472
1.500750893,9.795618057,0.017347964,-0.38823548,9.80332397
1.50311657,9.83868885,-0.025722843,-0.359521598,9.845289012
1.505482508,9.833903313,-0.006580262,-0.349950314,9.840130227
1.507848706,9.80997467,-0.006580262,-0.378664196,9.817282359
1.510214852,9.80997467,0.022133609,-0.397806764,9.818062087
1.512580893,9.819545746,0.026919255,-0.412163705,9.828228845
1.51494657,9.833903313,-0.020937199,-0.373878539,9.841030327
1.5173123,9.829116821,0.026919255,-0.335593373,9.834881039
1.519677404,9.795618057,-0.001794617,-0.402592421,9.803887851
1.522043029,9.833903313,-0.020937199,-0.38823548,9.84158623
1.524408654,9.786046028,0.026919255,-0.369092882,9.793040951
1.52677407,9.786046028,0.017347964,-0.359521598,9.792663253
1.529139852,9.833903313,-0.001794617,-0.421734989,9.842942547
1.531505008,9.843474388,-0.020937199,-0.431306273,9.852941261
1.533870268,9.80997467,-0.011365907,-0.421734989,9.819042347
1.53623605,9.814760208,0.012562319,-0.378664196,9.822070165
1.538601987,9.814760208,0.022133609,-0.38823548,9.822460722
1.540968393,9.805189133,-0.001794617,-0.373878539,9.812314829
1.543333966,9.80997467,-0.006580262,-0.330807716,9.815552969
1.545699591,9.814760208,-0.006580262,-0.373878539,9.821881001
1.548064956,9.833903313,0.017347964,-0.38823548,9.841579248
1.550430737,9.853045464,-0.011365907,-0.38823548,9.860697789
1.552796831,9.824331284,0.036490545,-0.393021107,9.832257234
1.55516256,9.829116821,0.036490545,-0.383449823,9.836661162
1.557528498,9.829116821,-0.016151553,-0.378664196,9.836421348
1.559894331,9.80997467,-0.011365907,-0.383449823,9.817472485
1.562260008,9.819545746,-0.011365907,-0.345164657,9.82561685
1.564625477,9.824331284,0.012562319,-0.364307255,9.831091636
1.566990164,9.79083252,0.017347964,-0.397806764,9.798926094
1.569356154,9.800403595,0.012562319,-0.431306273,9.809897733
1.571721935,9.800403595,-0.001794617,-0.416949332,9.809269116
1.574086987,9.76211834,-0.001794617,-0.421734989,9.771223981
1.576452039,9.786046028,-0.035294134,-0.38823548,9.793807703
1.578817716,9.83868885,0.002991028,-0.321236432,9.843932146
1.581183185,9.833903313,-0.030508488,-0.297308207,9.838443845
1.583548498,9.824331284,-0.011365907,-0.373878539,9.831449512
1.585914383,9.833903313,0.012562319,-0.349950314,9.840136046
1.588280112,9.829116821,0.022133609,-0.35473597,9.83554091
1.59064631,9.786046028,0.017347964,-0.373878539,9.793200855
1.593011935,9.78126049,-0.006580262,-0.426520646,9.790557693
1.59537756,9.814760208,0.012562319,-0.412163705,9.823418686
1.597743185,9.83868885,0.017347964,-0.364307255,9.845446614
1.600108758,9.848259926,0.017347964,-0.335593373,9.853991447
1.602474695,9.872187614,-0.006580262,-0.369092882,9.879087061
1.604840633,9.83868885,-0.030508488,-0.38823548,9.846393038
1.607205685,9.78126049,-0.044865426,-0.393021107,9.789256115
1.609570737,9.805189133,-0.001794617,-0.402592421,9.813450861
1.611936623,9.771689415,-0.030508488,-0.369092882,9.778705147
1.614302143,9.819545746,-0.006580262,-0.35473597,9.825953367
1.6166673,9.83868885,-0.020937199,-0.412163705,9.847340533
1.619032143,9.829116821,0.017347964,-0.393021107,9.836986532
1.621398654,9.805189133,-0.001794617,-0.364307255,9.811954796
1.623764331,9.814760208,0.022133609,-0.345164657,9.820852635
1.626130164,9.776474953,0.022133609,-0.383449823,9.784016873
1.628495737,9.78126049,0.017347964,-0.407378048,9.789755595
1.630861414,9.819545746,-0.020937199,-0.397806764,9.827622665
1.633227039,9.79083252,0.012562319,-0.397806764,9.79891879
1.635592456,9.805189133,0.017347964,-0.383449823,9.812699356
1.637957873,9.857831001,-0.006580262,-0.364307255,9.864562592
1.640322664,9.853045464,-0.006580262,-0.369092882,9.859958304
1.64268855,9.786046028,0.002991028,-0.378664196,9.793369818
1.645054018,9.80997467,0.012562319,-0.402592421,9.818240245
1.647420112,9.771689415,0.012562319,-0.38823548,9.779406865
1.649785216,9.800403595,0.017347964,-0.378664196,9.80773155
1.652150945,9.795618057,0.031704899,-0.421734989,9.804743685
1.654517248,9.80997467,0.017347964,-0.421734989,9.819051094
1.656883498,9.805189133,-0.006580262,-0.345164657,9.811264744
1.659248602,9.829116821,0.031704899,-0.359521598,9.83574087
1.661614383,9.814760208,-0.001794617,-0.383449823,9.822247957
1.663980633,9.819545746,-0.006580262,-0.378664196,9.826846316
1.666346831,9.771689415,0.022133609,-0.373878539,9.778864407
1.66871256,9.76211834,0.012562319,-0.349950314,9.768396875
1.671077612,9.805189133,-0.011365907,-0.378664196,9.812504761
1.673443237,9.833903313,-0.011365907,-0.364307255,9.840655635
1.675808445,9.867402077,0.002991028,-0.330807716,9.872946188
1.678173341,9.83868885,0.017347964,-0.38823548,9.846361055
1.680538914,9.833903313,0.012562319,-0.364307255,9.840657089
1.682905008,9.79083252,-0.020937199,-0.369092882,9.797809416
1.685271414,9.786046028,-0.006580262,-0.393021107,9.793937194
1.687637352,9.819545746,-0.016151553,-0.38823548,9.827230857
1.690003237,9.800403595,-0.016151553,-0.378664196,9.807729506
1.692369018,9.805189133,-0.020937199,-0.378664196,9.812520515
1.69473407,9.833903313,-0.025722843,-0.378664196,9.841224649
1.697099852,9.805189133,-0.035294134,-0.397806764,9.813319001
1.699465268,9.80997467,0.007776673,-0.383449823,9.817468985
1.701831102,9.786046028,0.026919255,-0.369092882,9.793040951
1.704197039,9.800403595,0.026919255,-0.364307255,9.80720934
1.70656256,9.766903877,-0.016151553,-0.349950314,9.773184611
1.70892881,9.795618057,0.017347964,-0.359521598,9.802228821
1.711294643,9.80997467,0.007776673,-0.335593373,9.815716297
1.713660737,9.843474388,-0.025722843,-0.345164657,9.849557774
1.716027091,9.833903313,-0.016151553,-0.35473597,9.84031264
1.718393081,9.800403595,-0.001794617,-0.321236432,9.80566707
1.720758445,9.800403595,0.026919255,-0.349950314,9.80668652
1.723124018,9.824331284,0.026919255,-0.383449823,9.831848432
1.725489904,9.80997467,0.007776673,-0.383449823,9.817468985
1.727854695,9.805189133,-0.011365907,-0.383449823,9.812690603
1.730220008,9.800403595,-0.04007978,-0.345164657,9.806561867
1.732585008,9.833903313,0.007776673,-0.359521598,9.840476138
1.73495006,9.819545746,0.012562319,-0.407378048,9.828000475
1.737316206,9.786046028,-0.035294134,-0.369092882,9.793067553
1.739680633,9.771689415,0.031704899,-0.369092882,9.778708953
1.742045477,9.824331284,0.031704899,-0.431306273,9.833845406
1.74441131,9.79083252,0.012562319,-0.378664196,9.798160328
1.7467773,9.80997467,0.031704899,-0.345164657,9.816096315
1.749143185,9.80997467,0.002991028,-0.35473597,9.816386789
1.751509018,9.795618057,-0.016151553,-0.35473597,9.802052418
1.753875008,9.862616539,0.012562319,-0.373878539,9.869708606
1.75624105,9.824331284,0.036490545,-0.369092882,9.831329833
1.758607143,9.848259926,0.036490545,-0.321236432,9.853565242
1.760973393,9.819545746,0.026919255,-0.373878539,9.826697739
1.763339852,9.819545746,0.022133609,-0.421734989,9.828622943
1.765705477,9.795618057,0.007776673,-0.359521598,9.802216554
1.768071362,9.819545746,-0.020937199,-0.359521598,9.826147404
1.770437248,9.833903313,-0.001794617,-0.373878539,9.841008218
1.772803185,9.829116821,-0.006580262,-0.416949332,9.837958504
1.775169487,9.78126049,-0.006580262,-0.38823548,9.788964545
1.777536362,9.76211834,0.022133609,-0.364307255,9.768938742
1.779902039,9.776474953,0.017347964,-0.402592421,9.78477614
1.782268862,9.776474953,0.022133609,-0.378664196,9.783830486
1.784635112,9.800403595,0.046061836,-0.359521598,9.807103961
1.787000789,9.786046028,0.002991028,-0.412163705,9.79472229
1.789367039,9.800403595,0.012562319,-0.335593373,9.806155788
1.791733237,9.819545746,0.012562319,-0.311665148,9.824498543
1.7940998,9.805189133,-0.020937199,-0.38823548,9.812894531
1.796465841,9.83868885,-0.016151553,-0.383449823,9.846171486
1.798832195,9.829116821,0.017347964,-0.364307255,9.835881161
1.801198289,9.819545746,0.04127619,-0.38823548,9.827304268
1.803564487,9.786046028,0.017347964,-0.407378048,9.794536982
1.805930789,9.819545746,-0.049651071,-0.349950314,9.825905002
1.808296727,9.829116821,-0.016151553,-0.383449823,9.836606738
1.810662456,9.800403595,-0.001794617,-0.397806764,9.808474095
1.813027404,9.800403595,-0.030508488,-0.407378048,9.808914225
1.815393289,9.819545746,-0.001794617,-0.393021107,9.827407973
1.817759123,9.79083252,0.022133609,-0.359521598,9.797456155
1.820124591,9.78126049,0.007776673,-0.426520646,9.79055857
1.822490477,9.80997467,-0.025722843,-0.431306273,9.819485211
1.824856362,9.833903313,-0.011365907,-0.35473597,9.840305948
1.827222404,9.80997467,0.007776673,-0.321236432,9.81523593
1.829588498,9.814760208,-0.035294134,-0.393021107,9.82268951
1.831954123,9.833903313,-0.006580262,-0.412163705,9.842539133
1.834319695,9.79083252,-0.020937199,-0.397806764,9.798933106
1.836685477,9.80997467,0.017347964,-0.378664196,9.817295481
1.839051362,9.833903313,0.022133609,-0.402592421,9.842165662
1.841417716,9.83868885,-0.006580262,-0.369092882,9.845611771
1.843783498,9.829116821,0.002991028,-0.321236432,9.83436522
1.846148862,9.814760208,0.017347964,-0.383449823,9.822263113
1.848514123,9.795618057,-0.001794617,-0.407378048,9.804085537
1.850880112,9.814760208,-0.011365907,-0.359521598,9.821349342
1.853246831,9.80997467,-0.04007978,-0.364307255,9.81681869
1.855612664,9.800403595,0.002991028,-0.416949332,9.809269408
1.85797855,9.766903877,-0.035294134,-0.412163705,9.775660384
1.860344643,9.814760208,0.012562319,-0.373878539,9.821886831
1.862710633,9.814760208,0.026919255,-0.364307255,9.821556005
1.86507605,9.853045464,0.017347964,-0.407378048,9.86147873
1.867442456,9.83868885,-0.020937199,-0.373878539,9.8458124
1.869808133,9.80997467,0.002991028,-0.364307255,9.816737327
1.872174018,9.766903877,0.012562319,-0.407378048,9.775404137
1.874540373,9.79083252,0.022133609,-0.407378048,9.799328967
1.876906206,9.829116821,-0.011365907,-0.373878539,9.836231587
1.879272352,9.853045464,0.012562319,-0.369092882,9.859964111
1.881638133,9.824331284,0.012562319,-0.35473597,9.830741609
1.88400407,9.80997467,-0.016151553,-0.412163705,9.818642616
1.88637006,9.814760208,-0.001794617,-0.38823548,9.822435948
1.888735737,9.795618057,-0.006580262,-0.393021107,9.803501518
1.891101258,9.79083252,-0.016151553,-0.383449823,9.798351701
1.8934673,9.833903313,0.017347964,-0.397806764,9.841961468
1.895832612,9.819545746,0.012562319,-0.397806764,9.827608391
1.898198289,9.83868885,0.007776673,-0.383449823,9.84616131
1.900564018,9.829116821,0.031704899,-0.402592421,9.837409382
1.902930112,9.824331284,0.026919255,-0.359521598,9.830944288
1.905296362,9.795618057,0.046061836,-0.359521598,9.802321694
1.90766256,9.771689415,-0.011365907,-0.369092882,9.77866416
1.910028498,9.800403595,0.002991028,-0.421734989,9.809473991
1.912394956,9.824331284,0.017347964,-0.397806764,9.832397284
1.914760425,9.824331284,0.031704899,-0.38823548,9.832050506
1.917125529,9.853045464,0.017347964,-0.364307255,9.859793387
1.919491154,9.862616539,0.002991028,-0.35473597,9.868994455
1.921856623,9.805189133,0.002991028,-0.35473597,9.811604379
1.924222091,9.833903313,-0.035294134,-0.397806764,9.842009463
1.926588133,9.824331284,-0.006580262,-0.373878539,9.831445145
1.928953966,9.80997467,0.031704899,-0.378664196,9.817331349
1.931319852,9.80997467,0.007776673,-0.397806764,9.818040218
1.933685373,9.79083252,-0.001794617,-0.393021107,9.798717785
1.936050893,9.800403595,0.017347964,-0.393021107,9.808296344
1.938415945,9.786046028,0.012562319,-0.407378048,9.794529675
1.94078157,9.776474953,0.007776673,-0.38823548,9.784183653
1.943147768,9.814760208,-0.025722843,-0.349950314,9.821030742
1.945513341,9.805189133,0.017347964,-0.378664196,9.812513514
1.947879331,9.833903313,0.012562319,-0.373878539,9.841016072
1.950245425,9.776474953,0.007776673,-0.38823548,9.784183653
1.95261131,9.805189133,-0.006580262,-0.393021107,9.813064904
1.954976883,9.795618057,-0.035294134,-0.402592421,9.803951217
1.957342404,9.800403595,-0.044865426,-0.364307255,9.807275019
1.959709123,9.814760208,0.002991028,-0.330807716,9.820334039
1.962074227,9.824331284,-0.001794617,-0.330807716,9.829899396
1.964439487,9.848259926,0.017347964,-0.373878539,9.855369586
1.966805112,9.862616539,0.012562319,-0.345164657,9.868662597
1.969170998,9.78126049,0.017347964,-0.345164657,9.787364118
1.971536414,9.766903877,0.031704899,-0.421734989,9.776056309
1.973902404,9.80997467,0.002991028,-0.416949332,9.818831841
1.976268081,9.83868885,0.007776673,-0.412163705,9.847321346
1.978633654,9.83868885,0.026919255,-0.359521598,9.845292211
1.980999383,9.829116821,0.002991028,-0.345164657,9.835175905
1.98336532,9.843474388,-0.001794617,-0.38823548,9.851127755
1.985730893,9.747760773,-0.006580262,-0.402592421,9.756073187
1.988096206,9.76211834,0.002991028,-0.431306273,9.771642059
1.990462039,9.79083252,-0.016151553,-0.378664196,9.798165587
1.992827977,9.79083252,-0.006580262,-0.335593373,9.796584488
1.995194123,9.833903313,-0.025722843,-0.359521598,9.840506684
1.99756006,9.843474388,-0.016151553,-0.369092882,9.85040499
1.999925737,9.843474388,0.002991028,-0.311665148,9.848407594
2.002291623,9.824331284,0.031704899,-0.378664196,9.831677219
2.004656414,9.824331284,-0.006580262,-0.383449823,9.831813782
2.007022091,9.824331284,0.026919255,-0.383449823,9.831848432
2.009387091,9.80997467,-0.006580262,-0.35473597,9.816388539
2.01175282,9.80997467,-0.006580262,-0.34037903,9.815880206
2.014118498,9.80997467,-0.011365907,-0.373878539,9.817103309
2.016483914,9.786046028,-0.001794617,-0.378664196,9.793369525
2.018849435,9.833903313,0.007776673,-0.359521598,9.840476138
2.021215008,9.78126049,-0.006580262,-0.393021107,9.789155514
2.023580633,9.800403595,0.012562319,-0.412163705,9.809074745
2.025946206,9.80997467,0.012562319,-0.383449823,9.817473943
2.028311675,9.795618057,0.017347964,-0.364307255,9.802405514
2.030676987,9.80997467,-0.006580262,-0.397806764,9.818039344
2.033043081,9.824331284,-0.025722843,-0.393021107,9.832223168
2.035408706,9.776474953,-0.001794617,-0.364307255,9.783260474
2.037774331,9.805189133,0.046061836,-0.330807716,9.810876075
2.040140425,9.833903313,0.017347964,-0.402592421,9.842156063
2.042505945,9.814760208,0.017347964,-0.397806764,9.822834067
2.044871727,9.795618057,0.007776673,-0.326022089,9.801045046
2.047237612,9.867402077,-0.016151553,-0.378664196,9.874678283
2.04960256,9.814760208,-0.020937199,-0.43609193,9.824466015
2.051967873,9.833903313,0.012562319,-0.383449823,9.841384351
2.054333706,9.800403595,0.026919255,-0.383449823,9.807939082
2.056700008,9.814760208,0.036490545,-0.38823548,9.822503565
2.059065841,9.829116821,0.022133609,-0.402592421,9.837383191
2.061431675,9.805189133,0.007776673,-0.359521598,9.811781193
2.063798341,9.776474953,0.002991028,-0.369092882,9.783440141
2.066164331,9.78126049,-0.001794617,-0.426520646,9.790555646
2.06853032,9.800403595,0.017347964,-0.416949332,9.809284292
2.070895998,9.78126049,0.007776673,-0.34037903,9.787184229
2.073262508,9.800403595,-0.025722843,-0.383449823,9.807935871
2.075627873,9.814760208,0.007776673,-0.397806764,9.822821827
2.077993081,9.819545746,0.012562319,-0.345164657,9.825618307
2.080359279,9.829116821,-0.011365907,-0.326022089,9.834528818
2.082725581,9.819545746,0.002991028,-0.349950314,9.825780011
2.085091831,9.80997467,-0.020937199,-0.373878539,9.817119056
2.08745782,9.83868885,0.002991028,-0.364307255,9.845431784
2.089824643,9.848259926,-0.016151553,-0.393021107,9.856112318
2.092190425,9.862616539,0.036490545,-0.297308207,9.867164168
2.094555737,9.819545746,0.007776673,-0.373878539,9.826663945
2.096920893,9.814760208,0.026919255,-0.426520646,9.824060385
2.099286206,9.79083252,-0.011365907,-0.369092882,9.797793638
2.101651831,9.857831001,-0.030508488,-0.321236432,9.863110851
2.104018498,9.819545746,-0.011365907,-0.335593373,9.825285276
2.106384227,9.795618057,-0.020937199,-0.431306273,9.805131136
2.108750216,9.795618057,0.012562319,-0.407378048,9.804093421
2.111116518,9.795618057,0.007776673,-0.383449823,9.803123348
2.113482612,9.752547264,-0.001794617,-0.38823548,9.76027193
2.115848602,9.805189133,-0.011365907,-0.373878539,9.812321248
2.118214435,9.833903313,0.012562319,-0.359521598,9.840481083
2.120580737,9.800403595,0.012562319,-0.373878539,9.80754065
2.122946623,9.80997467,-0.001794617,-0.421734989,9.819035933
2.125312456,9.814760208,0.012562319,-0.378664196,9.822070165
2.127678237,9.824331284,0.007776673,-0.38823548,9.832002463
2.130044279,9.833903313,-0.011365907,-0.38823548,9.841570522
2.1324098,9.795618057,-0.001794617,-0.407378048,9.804085537
2.13477532,9.829116821,-0.016151553,-0.373878539,9.836238281
2.137140945,9.814760208,-0.016151553,-0.397806764,9.822832027
2.139507456,9.824331284,0.007776673,-0.412163705,9.832976384
2.141873602,9.79083252,0.007776673,-0.373878539,9.797971579
2.14424006,9.819545746,-0.011365907,-0.407378048,9.827999019
2.146606206,9.786046028,-0.006580262,-0.38823548,9.793746319
2.148972612,9.795618057,0.002991028,-0.369092882,9.802569644
2.151339331,9.805189133,0.022133609,-0.345164657,9.811287503
2.153705477,9.800403595,-0.011365907,-0.416949332,9.809275537
2.156071206,9.833903313,0.002991028,-0.397806764,9.841946633
2.158436623,9.80997467,0.022133609,-0.306879491,9.814798416
2.16080256,9.766903877,0.007776673,-0.326022089,9.772346813
2.16316855,9.795618057,-0.006580262,-0.407378048,9.804087581
2.165534591,9.814760208,-0.016151553,-0.397806764,9.822832027
2.167900841,9.819545746,0.002991028,-0.35473597,9.825951619
2.170266414,9.872187614,-0.001794617,-0.38823548,9.879818738
2.17263256,9.867402077,-0.001794617,-0.38823548,9.875036899
2.174998185,9.824331284,-0.001794617,-0.378664196,9.831626262
2.177363706,9.83868885,-0.006580262,-0.383449823,9.846160438
2.179729539,9.829116821,-0.011365907,-0.416949332,9.837962869
2.182094695,9.853045464,-0.006580262,-0.383449823,9.860506172
2.184460268,9.805189133,-0.020937199,-0.35473597,9.811626262
2.186826258,9.824331284,-0.006580262,-0.383449823,9.831813782
2.189191623,9.776474953,-0.016151553,-0.412163705,9.785172573
2.191557664,9.795618057,-0.001794617,-0.412163705,9.804285556
2.19392355,9.78126049,0.012562319,-0.38823548,9.788970394
2.196289018,9.80997467,0.007776673,-0.393021107,9.817847478
2.198654852,9.819545746,-0.020937199,-0.455234498,9.830114723
2.201020893,9.771689415,0.007776673,-0.407378048,9.780180539
2.20338756,9.776474953,0.031704899,-0.393021107,9.784422992
2.205753706,9.819545746,0.031704899,-0.421734989,9.828649157
2.208120008,9.872187614,-0.006580262,-0.35473597,9.87856109
2.21048657,9.91047287,-0.04007978,-0.306879491,9.915304025
2.212852508,9.886545181,-0.020937199,-0.349950314,9.892758928
2.215218341,9.814760208,0.012562319,-0.393021107,9.822634135
2.217583966,9.76211834,-0.030508488,-0.412163705,9.77086302
2.219949383,9.771689415,0.002991028,-0.373878539,9.778839815
2.222315841,9.80997467,0.017347964,-0.364307255,9.8167522
2.224680841,9.853045464,0.012562319,-0.345164657,9.859097391
2.227046675,9.833903313,-0.001794617,-0.364307255,9.840649235
2.229412195,9.83868885,0.002991028,-0.378664196,9.845973482
2.231778289,9.83868885,0.017347964,-0.397806764,9.846743089
2.234143914,9.78126049,-0.001794617,-0.345164657,9.787348908
2.236509539,9.786046028,-0.006580262,-0.35473597,9.792475569
2.238876258,9.771689415,0.031704899,-0.378664196,9.779074895
2.24124256,9.771689415,0.04127619,-0.416949332,9.780667896
2.243608393,9.757332802,0.036490545,-0.373878539,9.764561441
2.245974956,9.819545746,0.017347964,-0.349950314,9.82579487
2.248340112,9.848259926,0.017347964,-0.278165638,9.852202832
2.250706206,9.843474388,-0.011365907,-0.330807716,9.849038073
2.253072143,9.819545746,-0.016151553,-0.397806764,9.827613634
2.255437716,9.757332802,0.002991028,-0.469591439,9.768626744
2.257803133,9.719047546,0.017347964,-0.407378048,9.727596982
2.260169331,9.771689415,0.012562319,-0.369092882,9.778665624
2.262534956,9.79083252,-0.020937199,-0.43609193,9.800562023
2.264900425,9.800403595,-0.035294134,-0.402592421,9.808732689
2.267266518,9.833903313,0.012562319,-0.34037903,9.839800306
2.269632143,9.83868885,0.036490545,-0.35473597,9.845149438
2.271998029,9.771689415,0.026919255,-0.43609193,9.781452594
2.274364383,9.786046028,-0.006580262,-0.407378048,9.794523829
2.276730425,9.786046028,0.002991028,-0.393021107,9.79393544
2.279096206,9.819545746,-0.030508488,-0.383449823,9.827077042
2.281461935,9.805189133,-0.001794617,-0.34037903,9.811095506
2.283827977,9.819545746,0.002991028,-0.321236432,9.824799257
2.286194018,9.83868885,-0.025722843,-0.369092882,9.845643174
2.288559852,9.814760208,-0.020937199,-0.402592421,9.823036036
2.290925737,9.83868885,-0.011365907,-0.416949332,9.8475263
2.293291518,9.805189133,0.002991028,-0.402592421,9.813451153
2.295657248,9.795618057,-0.006580262,-0.383449823,9.803122471
2.298023133,9.814760208,-0.011365907,-0.349950314,9.821003632
2.300388341,9.819545746,-0.020937199,-0.369092882,9.826502255
2.302753081,9.824331284,0.002991028,-0.38823548,9.831999843
2.305118966,9.805189133,-0.016151553,-0.38823548,9.812885487
2.307484331,9.795618057,0.022133609,-0.35473597,9.8020641
2.309850581,9.771689415,-0.011365907,-0.364307255,9.778484698
2.312217195,9.76211834,0.002991028,-0.359521598,9.768736827
2.314583081,9.766903877,0.007776673,-0.402592421,9.775200892
2.316948758,9.742975235,-0.001794617,-0.349950314,9.74925817
2.319314331,9.76211834,-0.025722843,-0.364307255,9.768947534
2.32168032,9.752547264,0.007776673,-0.383449823,9.760085675
2.324047716,9.76211834,0.026919255,-0.383449823,9.769683357
2.326414123,9.79083252,0.007776673,-0.364307255,9.797611019
2.328780789,9.814760208,0.022133609,-0.383449823,9.822272731
2.331146935,9.80997467,0.007776673,-0.359521598,9.816563517
2.333513393,9.829116821,0.002991028,-0.407378048,9.837555759
2.335878602,9.814760208,-0.006580262,-0.393021107,9.822628306
2.338244591,9.824331284,0.022133609,-0.378664196,9.831651013
2.340610477,9.814760208,0.017347964,-0.383449823,9.822263113
2.34297657,9.833903313,-0.011365907,-0.378664196,9.841197596
2.345342508,9.843474388,0.017347964,-0.402592421,9.851719121
2.347708185,9.833903313,0.007776673,-0.393021107,9.841756979
2.350074383,9.824331284,0.002991028,-0.412163705,9.832973764
2.35244006,9.80997467,-0.001794617,-0.34037903,9.815878164
2.354806362,9.80997467,-0.035294134,-0.378664196,9.817343596
2.3571723,9.814760208,-0.001794617,-0.38823548,9.822435948
2.35953782,9.786046028,-0.006580262,-0.383449823,9.793557777
2.361904123,9.848259926,-0.001794617,-0.34037903,9.854140484
2.364269695,9.833903313,-0.025722843,-0.349950314,9.840161648
2.366636258,9.80997467,0.007776673,-0.431306273,9.819454598
2.369002091,9.833903313,-0.001794617,-0.393021107,9.84175407
2.371368498,9.896116257,0.022133609,-0.349950314,9.9023266
2.373734487,9.819545746,-0.001794617,-0.397806764,9.827600526
2.37610006,9.843474388,0.007776673,-0.393021107,9.851320424
2.378465789,9.824331284,0.012562319,-0.34037903,9.830234019
2.380831258,9.786046028,0.046061836,-0.369092882,9.793112279
2.383197664,9.805189133,0.036490545,-0.412163705,9.813915855
2.385564227,9.862616539,0.012562319,-0.402592421,9.870838033
2.3879298,9.862616539,0.007776673,-0.38823548,9.870257963
2.390295841,9.833903313,-0.006580262,-0.402592421,9.842142974
2.392661518,9.805189133,0.026919255,-0.421734989,9.814291568
2.39502756,9.805189133,0.022133609,-0.38823548,9.812897157
2.397393133,9.819545746,-0.001794617,-0.359521598,9.826125261
2.39975907,9.833903313,0.026919255,-0.359521598,9.840509885
2.40212506,9.862616539,-0.006580262,-0.330807716,9.86816508
2.404490529,9.857831001,0.017347964,-0.359521598,9.864400072
2.406857248,9.843474388,0.007776673,-0.416949332,9.852304058
2.409222664,9.853045464,0.002991028,-0.393021107,9.860881271
2.411588602,9.814760208,0.017347964,-0.34037903,9.820675984
2.413955216,9.805189133,-0.016151553,-0.364307255,9.811967926
2.416321154,9.819545746,-0.011365907,-0.397806764,9.827606935
2.418687768,9.862616539,0.002991028,-0.359521598,9.869167631
2.421053445,9.843474388,0.007776673,-0.335593373,9.849196486
2.4234198,9.833903313,0.002991028,-0.393021107,9.841754361
2.425786154,9.83868885,-0.006580262,-0.38823548,9.846347972
2.428152091,9.83868885,-0.001794617,-0.378664196,9.845973192
2.430517716,9.814760208,-0.001794617,-0.43609193,9.824443869
2.432883289,9.83868885,0.017347964,-0.440877587,9.848577171
2.435249331,9.848259926,-0.006580262,-0.369092882,9.855176123
2.437614435,9.824331284,-0.030508488,-0.345164657,9.830440203
2.439980841,9.795618057,0.002991028,-0.402592421,9.803888143
2.442346258,9.766903877,0.012562319,-0.416949332,9.775807686
2.444712091,9.786046028,0.026919255,-0.416949332,9.794961371
2.44707881,9.771689415,-0.035294134,-0.402592421,9.780042963
2.449445841,9.829116821,-0.006580262,-0.378664196,9.836410288
2.451812612,9.872187614,-0.001794617,-0.397806764,9.880199479
2.45417881,9.857831001,0.012562319,-0.378664196,9.865109043
2.456544904,9.853045464,-0.001794617,-0.373878539,9.860136576
2.458911414,9.829116821,-0.001794617,-0.34037903,9.835008825
2.461277195,9.824331284,-0.011365907,-0.349950314,9.830568629
2.463642768,9.843474388,-0.001794617,-0.43609193,9.853129829
2.466007925,9.853045464,-0.011365907,-0.43609193,9.86269792
2.468373758,9.867402077,0.002991028,-0.402592421,9.875612049
2.470739956,9.853045464,0.04127619,-0.393021107,9.860967205
2.473106623,9.814760208,0.022133609,-0.373878539,9.821903736
2.475472404,9.857831001,-0.001794617,-0.378664196,9.865101208
2.477838393,9.819545746,-0.011365907,-0.378664196,9.826850686
2.480204018,9.776474953,0.012562319,-0.38823548,9.784188628
2.4825698,9.795618057,0.012562319,-0.426520646,9.804907485
2.484935685,9.79083252,0.007776673,-0.383449823,9.798341475
2.487302612,9.814760208,0.007776673,-0.359521598,9.821345845
2.489669018,9.853045464,-0.001794617,-0.393021107,9.860880981
2.492034591,9.83868885,-0.011365907,-0.369092882,9.845616133
2.494400945,9.848259926,0.022133609,-0.378664196,9.855561883
2.496766779,9.857831001,0.031704899,-0.378664196,9.865151992
2.499132352,9.800403595,0.017347964,-0.335593373,9.806163087
2.501498341,9.814760208,0.002991028,-0.393021107,9.822626557
2.5038648,9.824331284,-0.016151553,-0.412163705,9.832986574
2.506231154,9.872187614,-0.011365907,-0.402592421,9.880399695
2.508596883,9.853045464,-0.011365907,-0.373878539,9.860142963
2.510963237,9.83868885,-0.011365907,-0.416949332,9.8475263
2.513329331,9.805189133,0.002991028,-0.397806764,9.813255988
2.515695425,9.79083252,-0.011365907,-0.393021107,9.798724213
2.518061779,9.786046028,0.007776673,-0.393021107,9.793938071
2.520427716,9.814760208,-0.006580262,-0.383449823,9.822249997
2.522794383,9.805189133,-0.025722843,-0.383449823,9.812717736
2.525161102,9.805189133,0.002991028,-0.349950314,9.81143252
2.527527508,9.833903313,-0.016151553,-0.378664196,9.841204287
2.529893393,9.833903313,0.036490545,-0.383449823,9.841443984
2.532258966,9.843474388,0.017347964,-0.364307255,9.850228868
2.534624539,9.800403595,0.002991028,-0.407378048,9.808867236
2.536990425,9.766903877,-0.020937199,-0.38823548,9.774639456
2.539356779,9.752547264,0.036490545,-0.326022089,9.758063338
2.541722612,9.814760208,0.007776673,-0.34037903,9.82066374
2.54408881,9.795618057,0.012562319,-0.345164657,9.801705442
2.54645532,9.829116821,0.022133609,-0.359521598,9.835714675
2.54882157,9.829116821,0.022133609,-0.364307255,9.835890766
2.551188185,9.80997467,0.012562319,-0.412163705,9.818637368
2.5535548,9.814760208,-0.006580262,-0.393021107,9.822628306
2.555920216,9.79083252,-0.006580262,-0.35473597,9.797258919
2.558285945,9.80997467,0.026919255,-0.364307255,9.81677378
2.560651623,9.786046028,-0.001794617,-0.43609193,9.795758075
2.563018133,9.78126049,-0.020937199,-0.416949332,9.79016557
2.565384279,9.78126049,-0.030508488,-0.397806764,9.789394147
2.567750529,9.795618057,-0.001794617,-0.364307255,9.802390327
2.570116779,9.814760208,0.002991028,-0.330807716,9.820334039
2.572482873,9.819545746,0.022133609,-0.326022089,9.824981372
2.574848706,9.78126049,-0.006580262,-0.412163705,9.789942748
2.577214591,9.80997467,0.022133609,-0.397806764,9.818062087
2.579580633,9.80997467,0.002991028,-0.373878539,9.817097185
2.581946466,9.795618057,-0.001794617,-0.373878539,9.802750711
2.584311831,9.78126049,0.017347964,-0.364307255,9.788057903
2.586677612,9.833903313,0.012562319,-0.345164657,9.839967013
2.589043914,9.862616539,0.022133609,-0.335593373,9.868349295
2.59141006,9.814760208,-0.001794617,-0.364307255,9.821519279
2.593776258,9.814760208,0.022133609,-0.43609193,9.824468638
2.59614256,9.80997467,-0.04007978,-0.378664196,9.817361967
2.598508237,9.771689415,-0.001794617,-0.402592421,9.779979443
2.600874175,9.776474953,0.012562319,-0.43609193,9.786204396
2.603240841,9.747760773,0.026919255,-0.407378048,9.75630676
2.605606518,9.786046028,0.007776673,-0.359521598,9.792650975
2.607973185,9.776474953,0.031704899,-0.349950314,9.782787584
2.610338914,9.79083252,-0.025722843,-0.373878539,9.798002258
2.612705529,9.786046028,-0.001794617,-0.369092882,9.793004117
2.615072352,9.79083252,-0.006580262,-0.373878539,9.797970702
2.617439018,9.79083252,0.031704899,-0.373878539,9.798019789
2.619804748,9.833903313,0.012562319,-0.364307255,9.840657089
2.622170737,9.829116821,0.007776673,-0.349950314,9.835347639
2.624536987,9.786046028,0.026919255,-0.38823548,9.793781103
2.626902508,9.833903313,0.012562319,-0.402592421,9.842148791
2.629269175,9.814760208,0.026919255,-0.364307255,9.821556005
2.63163532,9.829116821,0.002991028,-0.369092882,9.836044733
2.63400105,9.795618057,0.007776673,-0.407378048,9.804088457
2.636365841,9.80997467,0.017347964,-0.416949332,9.818846711
2.638731935,9.805189133,-0.001794617,-0.426520646,9.814461626
2.64109756,9.814760208,-0.016151553,-0.393021107,9.822639381
2.643463133,9.829116821,-0.011365907,-0.373878539,9.836231587
2.645829227,9.814760208,0.007776673,-0.38823548,9.822438862
2.648195216,9.776474953,0.017347964,-0.349950314,9.78275159
2.65056157,9.795618057,-0.011365907,-0.38823548,9.803315209
2.652927195,9.79083252,-0.025722843,-0.373878539,9.798002258
2.655292977,9.771689415,-0.006580262,-0.369092882,9.778659769
2.657658654,9.848259926,-0.001794617,-0.345164657,9.854306948
2.660024539,9.867402077,0.012562319,-0.326022089,9.872794536
2.662390737,9.843474388,-0.011365907,-0.369092882,9.850398305
2.664756779,9.814760208,0.002991028,-0.330807716,9.820334039
2.667122977,9.853045464,-0.006580262,-0.345164657,9.859091583
2.669489383,9.800403595,0.017347964,-0.416949332,9.809284292
2.671855529,9.800403595,0.007776673,-0.426520646,9.80968353
2.674221987,9.853045464,0.017347964,-0.383449823,9.860519237
2.676588081,9.776474953,0.031704899,-0.369092882,9.783491057
2.678954227,9.819545746,0.079561353,-0.412163705,9.828514007
2.681319591,9.824331284,0.012562319,-0.393021107,9.832197545
2.683685737,9.805189133,-0.016151553,-0.383449823,9.812697314
2.686051258,9.80997467,0.002991028,-0.407378048,9.818430061
2.688416414,9.805189133,0.036490545,-0.373878539,9.812382516
2.690782352,9.78126049,0.022133609,-0.349950314,9.787543711
2.693147925,9.79083252,-0.020937199,-0.412163705,9.799526453
2.695514018,9.800403595,0.026919255,-0.402592421,9.808706129
2.697879904,9.853045464,0.031704899,-0.326022089,9.858488754
2.700245268,9.853045464,-0.006580262,-0.349950314,9.859260288
2.70261105,9.824331284,-0.011365907,-0.383449823,9.831818149
2.704976675,9.824331284,0.002991028,-0.378664196,9.831626554
2.707343081,9.819545746,0.002991028,-0.378664196,9.826844569
2.709708706,9.857831001,-0.006580262,-0.364307255,9.864562592
2.712074591,9.80997467,-0.001794617,-0.34037903,9.815878164
2.714440789,9.833903313,-0.011365907,-0.402592421,9.842147337
2.716806675,9.853045464,0.012562319,-0.440877587,9.862912134
2.719172664,9.80997467,0.017347964,-0.407378048,9.818444931
2.721538862,9.824331284,0.031704899,-0.38823548,9.832050506
2.723904383,9.83868885,-0.001794617,-0.35473597,9.845081977
2.726270216,9.814760208,0.036490545,-0.345164657,9.820895486
2.728635841,9.771689415,0.012562319,-0.407378048,9.780185515
2.7310023,9.80997467,0.012562319,-0.450448871,9.820318988
2.733368133,9.78126049,-0.020937199,-0.402592421,9.789564638
2.735733185,9.80997467,0.026919255,-0.383449823,9.817502811
2.738098914,9.848259926,0.017347964,-0.345164657,9.854322055
2.740464539,9.857831001,-0.001794617,-0.321236432,9.86306383
2.74283032,9.819545746,-0.011365907,-0.383449823,9.827036257
2.745196102,9.83868885,0.007776673,-0.349950314,9.84491361
2.747561831,9.786046028,0.031704899,-0.373878539,9.793236811
2.74992782,9.853045464,-0.011365907,-0.393021107,9.860887368
2.752292977,9.83868885,-0.001794617,-0.373878539,9.845790302
2.754659227,9.800403595,-0.001794617,-0.407378048,9.808866944
2.757024748,9.814760208,-0.006580262,-0.393021107,9.822628306
2.759391102,9.814760208,-0.020937199,-0.359521598,9.821365083
2.761757039,9.805189133,0.022133609,-0.407378048,9.81367315
2.7641223,9.786046028,0.012562319,-0.431306273,9.795554082
2.766486883,9.805189133,-0.011365907,-0.407378048,9.813654772
2.768852352,9.829116821,0.026919255,-0.402592421,9.837395122
2.771218862,9.819545746,0.012562319,-0.383449823,9.827037714
2.773585425,9.80997467,0.022133609,-0.359521598,9.81658539
2.775951623,9.857831001,0.012562319,-0.345164657,9.863879992
2.778317664,9.853045464,0.002991028,-0.359521598,9.859602915
2.78068381,9.800403595,-0.030508488,-0.35473597,9.80686897
2.78305032,9.819545746,0.002991028,-0.369092882,9.826480405
2.785415216,9.800403595,0.022133609,-0.407378048,9.808891752
2.787780164,9.819545746,0.012562319,-0.369092882,9.82648798
2.790145685,9.800403595,0.012562319,-0.349950314,9.806657619
2.792510998,9.83868885,0.007776673,-0.373878539,9.84579321
2.794877456,9.833903313,-0.001794617,-0.369092882,9.840827564
2.797243602,9.83868885,-0.006580262,-0.373878539,9.845792338
2.799609279,9.814760208,-0.001794617,-0.378664196,9.822062296
2.801975008,9.819545746,0.012562319,-0.397806764,9.827608391
2.804340685,9.819545746,0.007776673,-0.378664196,9.82684719
2.806706883,9.786046028,0.012562319,-0.349950314,9.792309222
2.809072873,9.824331284,0.012562319,-0.321236432,9.82958981
2.811439123,9.776474953,0.002991028,-0.373878539,9.783621855
2.813805216,9.795618057,-0.020937199,-0.383449823,9.803142621
2.81617105,9.805189133,0.017347964,-0.38823548,9.81288753
2.818536779,9.83868885,0.007776673,-0.34037903,9.844578033
2.820903289,9.805189133,0.04127619,-0.364307255,9.812041451
2.823269487,9.857831001,-0.011365907,-0.393021107,9.865669102
2.825635268,9.872187614,-0.001794617,-0.369092882,9.879085032
2.828001727,9.829116821,0.002991028,-0.369092882,9.836044733
2.830367664,9.805189133,0.007776673,-0.378664196,9.81250126
2.832733914,9.824331284,0.012562319,-0.397806764,9.832390005
2.835099904,9.795618057,0.022133609,-0.402592421,9.803912672
2.837465789,9.766903877,0.007776673,-0.383449823,9.774431216
2.839831414,9.857831001,-0.006580262,-0.397806764,9.865856555
2.842197248,9.829116821,-0.016151553,-0.369092882,9.836057539
2.844562977,9.795618057,0.002991028,-0.402592421,9.803888143
2.846928393,9.80997467,-0.006580262,-0.378664196,9.817282359
2.849294018,9.79083252,0.007776673,-0.412163705,9.799507172
2.851660008,9.78126049,0.012562319,-0.393021107,9.789161363
2.854026206,9.800403595,0.002991028,-0.369092882,9.80735179
2.856392039,9.805189133,0.012562319,-0.349950314,9.811440106
2.858757873,9.819545746,0.002991028,-0.335593373,9.825279157
2.861123966,9.824331284,0.017347964,-0.38823548,9.832014692
2.86349006,9.824331284,0.04127619,-0.397806764,9.832468618
2.865855945,9.819545746,-0.006580262,-0.412163705,9.828194182
2.868221675,9.843474388,-0.006580262,-0.383449823,9.850942346
2.870587977,9.805189133,0.022133609,-0.35473597,9.811628888
2.872954175,9.814760208,-0.025722843,-0.359521598,9.821376451
2.875320529,9.819545746,-0.025722843,-0.383449823,9.82706335
2.877685998,9.843474388,0.022133609,-0.359521598,9.850062624
2.880051362,9.819545746,0.031704899,-0.364307255,9.826352509
2.882417716,9.848259926,-0.001794617,-0.364307255,9.85499602
2.884784227,9.829116821,0.012562319,-0.364307255,9.835873885
2.887150893,9.824331284,-0.016151553,-0.416949332,9.833188333
2.889517195,9.819545746,0.002991028,-0.416949332,9.828394291
2.891883498,9.795618057,-0.030508488,-0.393021107,9.803546781
2.8942498,9.78126049,-0.025722843,-0.407378048,9.789774018
2.896615789,9.805189133,0.002991028,-0.364307255,9.811955088
2.898981883,9.833903313,-0.011365907,-0.369092882,9.840833964
2.901348081,9.79083252,0.002991028,-0.369092882,9.797787502
2.903714383,9.819545746,-0.011365907,-0.349950314,9.825786129
2.906080112,9.814760208,-0.006580262,-0.330807716,9.820335788
2.908446466,9.80997467,0.007776673,-0.373878539,9.81709981
2.910812508,9.824331284,0.046061836,-0.378664196,9.831733999
2.913178862,9.829116821,-0.006580262,-0.335593373,9.834846399
2.915544695,9.805189133,-0.020937199,-0.378664196,9.812520515
2.917910893,9.843474388,-0.001794617,-0.407378048,9.851900737
2.92027657,9.857831001,0.017347964,-0.345164657,9.863887248
2.922642091,9.862616539,0.026919255,-0.369092882,9.869557194
2.925007925,9.824331284,0.026919255,-0.402592421,9.832613614
2.927373498,9.814760208,-0.020937199,-0.345164657,9.820850012
2.929739331,9.79083252,0.022133609,-0.35473597,9.797281711
2.932105008,9.771689415,0.012562319,-0.38823548,9.779406865
2.934471154,9.805189133,0.050847482,-0.421734989,9.814386369
2.936837873,9.824331284,0.012562319,-0.369092882,9.831270139
2.939205008,9.819545746,-0.001794617,-0.349950314,9.82577972
2.941570841,9.843474388,0.007776673,-0.330807716,9.849034585
2.943937248,9.805189133,0.022133609,-0.359521598,9.811803076
2.946303081,9.786046028,0.012562319,-0.412163705,9.794729889
2.94866907,9.805189133,-0.006580262,-0.38823548,9.812874401
2.951034748,9.824331284,0.002991028,-0.35473597,9.830734038
2.953400529,9.843474388,-0.020937199,-0.364307255,9.850235843
2.955766518,9.862616539,0.017347964,-0.407378048,9.871041628
2.958132091,9.805189133,0.002991028,-0.416949332,9.814050622
2.960497925,9.853045464,0.017347964,-0.35473597,9.859444379
2.96286407,9.814760208,0.036490545,-0.359521598,9.821410555
2.965230164,9.771689415,0.017347964,-0.412163705,9.78039334
2.967597456,9.80997467,-0.011365907,-0.402592421,9.818238787
2.969963445,9.819545746,-0.006580262,-0.393021107,9.827410012
2.972329591,9.79083252,0.017347964,-0.407378048,9.799319326
2.974695164,9.80997467,-0.001794617,-0.393021107,9.817844562
2.977060841,9.80997467,-0.006580262,-0.349950314,9.816216764
2.97942657,9.800403595,0.007776673,-0.369092882,9.807354417
2.98179282,9.833903313,0.002991028,-0.412163705,9.842537388
2.984158602,9.800403595,-0.016151553,-0.416949332,9.809282249
2.986524852,9.80997467,0.022133609,-0.373878539,9.817121681
2.98889032,9.805189133,0.007776673,-0.421734989,9.814257731
2.991256935,9.805189133,0.022133609,-0.364307255,9.811979596
2.993623498,9.843474388,0.002991028,-0.316450804,9.848560204
2.995989279,9.800403595,-0.006580262,-0.35473597,9.806823723
2.998355893,9.805189133,-0.020937199,-0.359521598,9.81180045
3.000722143,9.80997467,-0.030508488,-0.378664196,9.817327558
3.003088445,9.805189133,-0.020937199,-0.421734989,9.814276983
3.0054548,9.771689415,-0.020937199,-0.455234498,9.782310097
3.007820737,9.766903877,0.002991028,-0.431306273,9.776422935
3.010187039,9.78126049,-0.025722843,-0.364307255,9.788076329
3.012553289,9.795618057,0.002991028,-0.402592421,9.803888143
3.014918602,9.819545746,-0.020937199,-0.431306273,9.829035666
3.017283966,9.824331284,0.002991028,-0.349950314,9.830562514
3.019650164,9.79083252,0.017347964,-0.330807716,9.796434868
3.022015477,9.771689415,-0.020937199,-0.412163705,9.780400365
3.024381675,9.771689415,-0.04007978,-0.402592421,9.780061404
3.026747404,9.805189133,0.002991028,-0.364307255,9.811955088
3.029113133,9.843474388,-0.006580262,-0.38823548,9.851129789
3.031479123,9.786046028,0.017347964,-0.378664196,9.793384726
3.033845216,9.805189133,-0.011365907,-0.364307255,9.811961215
3.036210998,9.83868885,0.007776673,-0.373878539,9.84579321
3.038576414,9.800403595,0.002991028,-0.364307255,9.807172852
3.040942039,9.766903877,0.012562319,-0.369092882,9.773883502
3.043308133,9.795618057,-0.006580262,-0.421734989,9.804694632
3.045673706,9.78126049,-0.006580262,-0.383449823,9.788775912
3.048040008,9.824331284,-0.020937199,-0.397806764,9.832404271
3.050406779,9.853045464,0.017347964,-0.407378048,9.86147873
3.052773237,9.833903313,0.012562319,-0.383449823,9.841384351
3.055140112,9.800403595,0.007776673,-0.349950314,9.806652656
3.057506414,9.771689415,0.031704899,-0.383449823,9.779261372
3.059872977,9.78126049,0.017347964,-0.402592421,9.78955762
3.062239331,9.747760773,0.017347964,-0.34037903,9.753717185
3.064606102,9.819545746,0.017347964,-0.378664196,9.826859426
3.066972768,9.800403595,-0.030508488,-0.373878539,9.807580056
3.069339331,9.819545746,-0.006580262,-0.349950314,9.825781759
3.07170532,9.819545746,0.017347964,-0.397806764,9.827615674
3.074071518,9.80997467,0.002991028,-0.378664196,9.817280609
3.076438081,9.795618057,-0.006580262,-0.321236432,9.800886147
3.078805008,9.776474953,0.002991028,-0.35473597,9.782909028
3.08117131,9.805189133,0.026919255,-0.412163705,9.813884934
3.083537508,9.833903313,0.031704899,-0.393021107,9.841804974
3.085904331,9.843474388,0.007776673,-0.34037903,9.84936071
3.088270893,9.786046028,0.007776673,-0.383449823,9.793558654
3.090637195,9.776474953,0.007776673,-0.402592421,9.784763852
3.093002664,9.824331284,-0.001794617,-0.407378048,9.832774037
3.095368654,9.819545746,0.022133609,-0.407378048,9.82801737
3.097735529,9.78126049,0.002991028,-0.373878539,9.788403899
3.100102248,9.76211834,0.012562319,-0.373878539,9.769283364
3.102468602,9.79083252,0.017347964,-0.369092882,9.797802403
3.104834695,9.800403595,0.002991028,-0.34037903,9.806313143
3.107200373,9.80997467,0.036490545,-0.378664196,9.81734797
3.109566102,9.78126049,0.007776673,-0.369092882,9.788224906
3.111932195,9.786046028,0.046061836,-0.359521598,9.792756218
3.114298445,9.80997467,0.031704899,-0.35473597,9.816437533
3.116664748,9.848259926,-0.001794617,-0.364307255,9.85499602
3.119030945,9.857831001,-0.011365907,-0.35473597,9.864218106
3.121396466,9.814760208,0.04127619,-0.345164657,9.820914433
3.123761883,9.829116821,0.012562319,-0.345164657,9.835183473
3.12612782,9.805189133,0.022133609,-0.38823548,9.812897157
3.128493185,9.795618057,-0.001794617,-0.426520646,9.804899602
3.130859123,9.814760208,-0.006580262,-0.421734989,9.823819097
3.13322532,9.80997467,-0.025722843,-0.397806764,9.818070835
3.135591154,9.805189133,0.002991028,-0.421734989,9.814255105
3.13795756,9.795618057,0.007776673,-0.373878539,9.802753632
3.140323758,9.78126049,-0.025722843,-0.373878539,9.78843724
3.142689956,9.795618057,0.002991028,-0.426520646,9.804899894
3.145055945,9.833903313,0.002991028,-0.378664196,9.841191487
3.147421518,9.805189133,-0.006580262,-0.311665148,9.810143342
3.149787352,9.786046028,-0.035294134,-0.359521598,9.79271149
3.152153393,9.800403595,-0.006580262,-0.393021107,9.808283209
3.1545198,9.853045464,0.012562319,-0.38823548,9.86069924
3.156885841,9.833903313,-0.001794617,-0.330807716,9.839466008
3.159252456,9.814760208,-0.016151553,-0.35473597,9.821182028
3.16161855,9.795618057,-0.011365907,-0.412163705,9.80429198
3.163984748,9.78126049,0.002991028,-0.402592421,9.789542706
3.16635105,9.814760208,0.012562319,-0.359521598,9.8213508
3.168717664,9.795618057,-0.044865426,-0.397806764,9.803794992
3.171083445,9.814760208,-0.049651071,-0.407378048,9.823336503
3.173449748,9.867402077,-0.011365907,-0.369092882,9.874309215
3.175815945,9.805189133,0.017347964,-0.369092882,9.812148818
3.178182508,9.805189133,0.050847482,-0.364307255,9.812086382
3.180548654,9.805189133,0.002991028,-0.383449823,9.812684477
3.182915112,9.786046028,0.022133609,-0.383449823,9.793580577
3.185281206,9.78126049,0.031704899,-0.364307255,9.788093878
3.187648133,9.80997467,0.007776673,-0.373878539,9.81709981
3.190014018,9.833903313,-0.001794617,-0.369092882,9.840827564
3.192380477,9.867402077,0.026919255,-0.373878539,9.874519409
3.194746779,9.824331284,-0.016151553,-0.35473597,9.830746851
3.197113654,9.814760208,-0.001794617,-0.345164657,9.820827857
3.19948006,9.824331284,-0.044865426,-0.373878539,9.831545313
3.201846675,9.853045464,0.017347964,-0.402592421,9.861282194
3.204212768,9.786046028,0.022133609,-0.393021107,9.793959993
3.206578914,9.79083252,-0.006580262,-0.393021107,9.79871983
3.20894532,9.862616539,-0.025722843,-0.445663214,9.872714032
3.211312195,9.819545746,0.002991028,-0.364307255,9.826301816
3.213678133,9.814760208,0.017347964,-0.383449823,9.822263113
3.216044279,9.795618057,-0.030508488,-0.402592421,9.803935156
3.21841032,9.771689415,0.002991028,-0.38823548,9.779399253
3.220776727,9.795618057,0.012562319,-0.397806764,9.803700381
3.223142508,9.80997467,-0.016151553,-0.393021107,9.817857684
3.225508706,9.800403595,-0.001794617,-0.383449823,9.807902304
3.227875945,9.848259926,-0.025722843,-0.393021107,9.85613265
3.230243289,9.819545746,0.002991028,-0.345164657,9.825610731
3.232609591,9.833903313,0.031704899,-0.369092882,9.840878473
3.23497605,9.824331284,-0.025722843,-0.402592421,9.832610411
3.2373423,9.833903313,-0.011365907,-0.369092882,9.840833964
3.239707768,9.805189133,0.012562319,-0.316450804,9.810302383
3.242073966,9.814760208,0.012562319,-0.373878539,9.821886831
3.24444006,9.78126049,-0.011365907,-0.383449823,9.788780298
3.24680631,9.800403595,-0.001794617,-0.335593373,9.806147906
3.249171831,9.843474388,-0.035294134,-0.369092882,9.850454977
3.251537873,9.829116821,-0.020937199,-0.345164657,9.835197735
3.25390407,9.833903313,0.007776673,-0.378664196,9.841194105
3.256270112,9.80997467,0.017347964,-0.426520646,9.819257805
3.25863657,9.752547264,-0.030508488,-0.397806764,9.760704848
3.2610023,9.76211834,-0.030508488,-0.421734989,9.771271445
3.263368029,9.800403595,0.002991028,-0.378664196,9.807716663
3.265733602,9.843474388,-0.016151553,-0.34037903,9.849370883
3.268099539,9.80997467,-0.006580262,-0.330807716,9.815552969
3.270465112,9.80997467,-0.011365907,-0.383449823,9.817472485
3.272830737,9.805189133,0.002991028,-0.373878539,9.812315121
3.275196935,9.853045464,0.031704899,-0.349950314,9.85930907
3.277562873,9.829116821,0.002991028,-0.34037903,9.835009116
3.279928966,9.853045464,-0.016151553,-0.345164657,9.859102617
3.282294956,9.83868885,-0.020937199,-0.364307255,9.845453592
3.284660945,9.843474388,-0.016151553,-0.378664196,9.850768268
3.287027873,9.833903313,0.012562319,-0.402592421,9.842148791
3.289394175,9.83868885,-0.011365907,-0.359521598,9.84526197
3.29176105,9.78126049,0.002991028,-0.373878539,9.788403899
3.294127456,9.800403595,0.026919255,-0.416949332,9.809305889
3.29649381,9.79083252,-0.011365907,-0.373878539,9.797975085
3.29886006,9.766903877,0.012562319,-0.349950314,9.773179338
3.301225685,9.824331284,-0.011365907,-0.38823548,9.832005957
3.303591779,9.848259926,-0.016151553,-0.383449823,9.855735295
3.305958029,9.776474953,0.017347964,-0.359521598,9.783098652
3.308323966,9.766903877,0.022133609,-0.426520646,9.776237574
3.310690425,9.80997467,0.002991028,-0.416949332,9.818831841
3.313057352,9.79083252,0.012562319,-0.321236432,9.796109028
3.315423706,9.829116821,0.031704899,-0.34037903,9.835059764
3.317789695,9.814760208,0.002991028,-0.359521598,9.821343221
3.320155581,9.83868885,-0.016151553,-0.373878539,9.845803387
3.322521154,9.829116821,0.002991028,-0.369092882,9.836044733
3.324887404,9.819545746,0.031704899,-0.378664196,9.826895259
3.327252925,9.843474388,0.017347964,-0.345164657,9.849539462
3.32961881,9.881759644,0.002991028,-0.369092882,9.888650674
3.331984383,9.814760208,0.017347964,-0.426520646,9.824038821
3.334350373,9.795618057,-0.001794617,-0.440877587,9.805534631
3.33671605,9.805189133,-0.001794617,-0.393021107,9.813062862
3.339081779,9.80997467,0.017347964,-0.349950314,9.816229888
3.341447977,9.800403595,-0.020937199,-0.378664196,9.807738555
3.343813341,9.79083252,-0.011365907,-0.407378048,9.799310562
3.346179695,9.776474953,-0.006580262,-0.369092882,9.783441897
3.348545529,9.805189133,-0.006580262,-0.393021107,9.813064904
3.350910373,9.80997467,0.012562319,-0.38823548,9.817662025
3.35327631,9.795618057,-0.006580262,-0.373878539,9.802752755
3.355642664,9.78126049,-0.001794617,-0.359521598,9.787865742
3.358009018,9.80997467,-0.011365907,-0.38823548,9.817660567
3.360375112,9.805189133,0.017347964,-0.369092882,9.812148818
3.362741102,9.80997467,0.007776673,-0.34037903,9.815881081
3.365106518,9.824331284,-0.016151553,-0.35473597,9.830746851
3.367472456,9.833903313,0.017347964,-0.416949332,9.842753784
3.369838185,9.80997467,0.007776673,-0.416949332,9.818834465
3.372204227,9.829116821,-0.011365907,-0.35473597,9.835522573
3.37457032,9.80997467,0.002991028,-0.393021107,9.817844854
3.376936623,9.80997467,-0.001794617,-0.397806764,9.818037303
3.379302404,9.80997467,0.017347964,-0.393021107,9.817859725
3.381668237,9.800403595,-0.011365907,-0.393021107,9.808287587
3.384034643,9.80997467,0.002991028,-0.369092882,9.816916091
3.386400581,9.824331284,0.012562319,-0.34037903,9.830234019
3.388766102,9.78126049,0.022133609,-0.364307255,9.788067555
3.3911323,9.79083252,0.022133609,-0.397806764,9.798935735
3.393498289,9.814760208,-0.020937199,-0.373878539,9.821901113
3.395863654,9.805189133,-0.016151553,-0.383449823,9.812697314
3.398229279,9.824331284,0.002991028,-0.345164657,9.830393316
3.400594695,9.819545746,0.007776673,-0.35473597,9.825954241
3.402960164,9.80997467,0.007776673,-0.373878539,9.81709981
3.405326414,9.853045464,0.007776673,-0.38823548,9.860694305
3.407692612,9.83868885,0.012562319,-0.369092882,9.845617587
3.410058758,9.824331284,0.007776673,-0.38823548,9.832002463
3.41242506,9.891330719,0.022133609,-0.369092882,9.898239381
3.414791675,9.80997467,0.007776673,-0.393021107,9.817847478
3.417157195,9.80997467,0.007776673,-0.393021107,9.817847478
3.419523133,9.833903313,-0.006580262,-0.402592421,9.842142974
3.42188855,9.795618057,0.017347964,-0.359521598,9.802228821
3.424253862,9.795618057,0.026919255,-0.407378048,9.804122329
3.4266198,9.800403595,-0.011365907,-0.402592421,9.808675775
3.428984956,9.814760208,0.022133609,-0.349950314,9.821021997
3.431350529,9.80997467,0.012562319,-0.34037903,9.815886039
3.43371605,9.848259926,0.012562319,-0.397806764,9.856299082
3.436082248,9.829116821,0.031704899,-0.34037903,9.835059764
3.438447768,9.824331284,0.007776673,-0.345164657,9.830395937
3.440814175,9.843474388,-0.001794617,-0.412163705,9.852099785
3.443180373,9.80997467,-0.011365907,-0.349950314,9.816221138
3.44554605,9.795618057,0.012562319,-0.321236432,9.800891989
3.447911518,9.829116821,0.026919255,-0.364307255,9.835902699
3.450276987,9.829116821,0.022133609,-0.364307255,9.835890766
3.452644331,9.83868885,-0.001794617,-0.349950314,9.844910702
3.455010425,9.848259926,-0.049651071,-0.402592421,9.856610444
3.457376362,9.766903877,-0.011365907,-0.393021107,9.774814889
3.459742977,9.78126049,-0.001794617,-0.397806764,9.789346772
3.462109279,9.814760208,-0.001794617,-0.393021107,9.822626266
3.464475008,9.78126049,0.012562319,-0.421734989,9.790356224
3.466840477,9.79083252,0.012562319,-0.38823548,9.798534892
3.469206675,9.829116821,-0.006580262,-0.35473597,9.835518207
3.471572612,9.833903313,-0.011365907,-0.34037903,9.839798851
3.473938602,9.819545746,-0.016151553,-0.416949332,9.828407108
3.476304852,9.824331284,-0.020937199,-0.416949332,9.833197358
3.478670685,9.814760208,0.031704899,-0.345164657,9.82087887
3.481036623,9.771689415,0.017347964,-0.349950314,9.777969124
3.483403185,9.776474953,-0.030508488,-0.393021107,9.784419189
3.485769123,9.848259926,0.012562319,-0.364307255,9.855003864
3.488135789,9.819545746,0.026919255,-0.335593373,9.825315578
3.490501831,9.83868885,-0.001794617,-0.397806764,9.846727971
3.492867508,9.819545746,-0.006580262,-0.373878539,9.826663071
3.495233237,9.814760208,-0.035294134,-0.369092882,9.821761205
3.497599748,9.857831001,-0.001794617,-0.393021107,9.865662718
3.499966102,9.795618057,0.022133609,-0.479162723,9.8073554
3.502332248,9.800403595,-0.001794617,-0.426520646,9.809680612
3.504698498,9.78126049,0.007776673,-0.373878539,9.788406531
3.507065268,9.79083252,-0.001794617,-0.397806764,9.798910902
3.50943105,9.800403595,-0.020937199,-0.421734989,9.809495879
3.511797248,9.829116821,-0.016151553,-0.397806764,9.83717686
3.514163654,9.80997467,0.012562319,-0.345164657,9.816053152
3.516530164,9.76211834,0.036490545,-0.34037903,9.76811875
3.518896727,9.78126049,0.036490545,-0.402592421,9.789610258
3.521263758,9.819545746,0.007776673,-0.431306273,9.829016443
3.523630893,9.843474388,0.002991028,-0.359521598,9.850038211
3.525997195,9.79083252,0.002991028,-0.402592421,9.799106644
3.528363758,9.833903313,-0.030508488,-0.393021107,9.841801193
3.530730008,9.881759644,0.002991028,-0.345164657,9.887786468
3.533096258,9.833903313,-0.001794617,-0.369092882,9.840827564
3.535462612,9.800403595,0.007776673,-0.445663214,9.810534481
3.537829331,9.824331284,-0.030508488,-0.440877587,9.834266062
3.540195633,9.824331284,0.012562319,-0.38823548,9.832007413
3.542562091,9.805189133,0.007776673,-0.416949332,9.814053248
3.544928498,9.805189133,0.002991028,-0.412163705,9.81384847
3.547294748,9.829116821,-0.044865426,-0.369092882,9.836146601
3.54966131,9.795618057,-0.035294134,-0.345164657,9.801760936
3.552027716,9.766903877,0.007776673,-0.397806764,9.775004964
3.554394227,9.795618057,0.007776673,-0.421734989,9.804695508
3.556760581,9.776474953,-0.035294134,-0.373878539,9.783685059
3.559127143,9.771689415,0.007776673,-0.359521598,9.778304059
3.561493289,9.786046028,0.012562319,-0.369092882,9.79301201
3.563858914,9.814760208,-0.011365907,-0.359521598,9.821349342
3.566225216,9.829116821,-0.030508488,-0.345164657,9.835222768
3.568591518,9.805189133,-0.001794617,-0.335593373,9.810930642
3.570957612,9.79083252,-0.011365907,-0.407378048,9.799310562
3.57332381,9.805189133,0.002991028,-0.421734989,9.814255105
3.5756898,9.795618057,0.069990061,-0.397806764,9.803942164
3.578055685,9.814760208,0.007776673,-0.407378048,9.823214102
3.58042157,9.881759644,-0.025722843,-0.369092882,9.888683677
3.5827873,9.872187614,0.012562319,-0.35473597,9.878566886
3.585152664,9.79083252,0.012562319,-0.407378048,9.799312022
3.587519175,9.80997467,-0.006580262,-0.383449823,9.81746811
3.589885841,9.819545746,-0.016151553,-0.359521598,9.826138372
3.592251466,9.766903877,-0.006580262,-0.450448871,9.777287908
3.59461756,9.742975235,0.022133609,-0.397806764,9.75111822
3.596982977,9.833903313,0.026919255,-0.316450804,9.839030446
3.599349643,9.83868885,-0.011365907,-0.383449823,9.846164799
3.601715945,9.857831001,-0.001794617,-0.378664196,9.865101208
3.604082352,9.83868885,0.026919255,-0.349950314,9.844947342
3.606448758,9.833903313,0.002991028,-0.34037903,9.839792741
3.6088148,9.833903313,-0.04007978,-0.421734989,9.843023984
3.611181258,9.814760208,0.017347964,-0.35473597,9.821184068
3.613547352,9.766903877,0.002991028,-0.278165638,9.770864671
3.615912925,9.872187614,0.007776673,-0.43609193,9.881817897
3.618278862,9.857831001,-0.011365907,-0.397806764,9.865860908
3.620645164,9.83868885,-0.016151553,-0.34037903,9.844588211
3.623011518,9.83868885,0.017347964,-0.407378048,9.847134412
3.625377195,9.80997467,0.017347964,-0.38823548,9.817669315
3.627743498,9.80997467,-0.011365907,-0.38823548,9.817660567
3.630109435,9.795618057,-0.016151553,-0.35473597,9.802052418
3.632475581,9.78126049,0.012562319,-0.373878539,9.788411503
3.634841675,9.814760208,0.026919255,-0.407378048,9.823247908
3.637207404,9.848259926,-0.006580262,-0.373878539,9.855356515
3.639573081,9.862616539,-0.020937199,-0.326022089,9.868025829
3.641939227,9.83868885,-0.001794617,-0.321236432,9.843931855
3.644304643,9.829116821,0.022133609,-0.349950314,9.83536947
3.646671102,9.824331284,0.012562319,-0.349950314,9.830570085
3.649037039,9.786046028,0.007776673,-0.407378048,9.794524706
3.651403393,9.79083252,0.022133609,-0.35473597,9.797281711
3.653769487,9.824331284,0.002991028,-0.364307255,9.831084065
3.656135789,9.848259926,-0.001794617,-0.364307255,9.85499602
3.658502143,9.862616539,0.022133609,-0.359521598,9.869191997
3.660869175,9.80997467,-0.006580262,-0.426520646,9.819244686
3.663235581,9.829116821,0.007776673,-0.397806764,9.837166675
3.665602039,9.829116821,-0.030508488,-0.335593373,9.834891518
3.667968498,9.771689415,0.026919255,-0.364307255,9.778515145
3.670334956,9.742975235,0.031704899,-0.383449823,9.750569491
3.672701414,9.829116821,0.007776673,-0.407378048,9.837558378
3.675068445,9.776474953,0.012562319,-0.407378048,9.784966898
3.677435268,9.79083252,-0.001794617,-0.416949332,9.799706699
3.679801623,9.814760208,0.007776673,-0.364307255,9.821522193
3.682167873,9.867402077,-0.001794617,-0.35473597,9.873776611
3.684534227,9.829116821,0.012562319,-0.359521598,9.835697793
3.686899956,9.795618057,-0.030508488,-0.359521598,9.802260947
3.689266362,9.79083252,0.017347964,-0.335593373,9.796597638
3.69163381,9.795618057,0.026919255,-0.34037903,9.801567
3.694000529,9.83868885,0.002991028,-0.378664196,9.845973482
3.696366675,9.824331284,-0.001794617,-0.369092882,9.831262276
3.698733081,9.843474388,-0.020937199,-0.407378048,9.851922821
3.701099695,9.862616539,0.017347964,-0.402592421,9.870845283
3.703465477,9.843474388,0.007776673,-0.407378048,9.851903642
3.705831675,9.766903877,0.04127619,-0.373878539,9.774144476
3.708196831,9.766903877,0.017347964,-0.359521598,9.773534063
3.710562612,9.771689415,0.002991028,-0.359521598,9.778301424
3.712928445,9.776474953,-0.054436713,-0.373878539,9.783772842
3.715294435,9.833903313,0.002991028,-0.402592421,9.842141229
3.717660164,9.800403595,-0.044865426,-0.426520646,9.809783045
3.72002532,9.843474388,-0.011365907,-0.407378048,9.851907129
3.722390945,9.824331284,-0.020937199,-0.349950314,9.830584355
3.724756935,9.833903313,-0.001794617,-0.330807716,9.839466008
3.7271223,9.79083252,0.002991028,-0.373878539,9.797968949
3.729487873,9.776474953,0.017347964,-0.38823548,9.784195942
3.731853498,9.829116821,0.046061836,-0.373878539,9.836332871
3.734218758,9.824331284,0.007776673,-0.326022089,9.82974242
3.736584904,9.80997467,-0.025722843,-0.335593373,9.815746921
3.73895131,9.862616539,0.012562319,-0.373878539,9.869708606
3.7413173,9.867402077,-0.006580262,-0.378664196,9.874667266
3.743683133,9.80997467,0.036490545,-0.373878539,9.817164548
3.746049123,9.805189133,-0.006580262,-0.421734989,9.814256856
3.748415477,9.805189133,0.002991028,-0.426520646,9.814461918
3.750781675,9.786046028,-0.011365907,-0.35473597,9.792479954
3.753147612,9.795618057,0.002991028,-0.35473597,9.802039567
3.755513654,9.805189133,-0.006580262,-0.407378048,9.813650396
3.757879643,9.824331284,-0.016151553,-0.402592421,9.83259003
3.760245112,9.848259926,-0.011365907,-0.364307255,9.855002411
3.762610425,9.829116821,0.002991028,-0.397806764,9.837164055
3.764975945,9.819545746,0.026919255,-0.421734989,9.828634885
3.767341414,9.814760208,0.012562319,-0.378664196,9.822070165
3.769706466,9.76211834,0.060418773,-0.359521598,9.76892321
3.772072195,9.786046028,0.046061836,-0.34037903,9.792072122
3.774437873,9.833903313,0.017347964,-0.35473597,9.840314676
3.776802977,9.800403595,-0.001794617,-0.321236432,9.80566707
3.77916881,9.843474388,-0.006580262,-0.369092882,9.850393946
3.781535008,9.83868885,-0.016151553,-0.330807716,9.844261928
3.78390105,9.786046028,-0.011365907,-0.369092882,9.793010549
3.786266414,9.76211834,-0.035294134,-0.431306273,9.77170534
3.78863282,9.76211834,0.012562319,-0.412163705,9.770823466
3.790998862,9.814760208,0.026919255,-0.38823548,9.822472671
3.793364123,9.881759644,-0.016151553,-0.426520646,9.890973379
3.795730008,9.833903313,-0.030508488,-0.460020155,9.844704347
3.798095529,9.795618057,-0.006580262,-0.364307255,9.802392371
3.800460685,9.766903877,0.031704899,-0.369092882,9.773926852
3.802826466,9.776474953,0.017347964,-0.426520646,9.785789867
3.805191987,9.771689415,0.026919255,-0.373878539,9.778876409
3.807558029,9.795618057,0.036490545,-0.349950314,9.801935008
3.809924331,9.819545746,0.026919255,-0.345164657,9.825647151
3.81229006,9.771689415,-0.030508488,-0.369092882,9.778705147
3.814655477,9.76211834,-0.001794617,-0.38823548,9.769835438
3.817021362,9.814760208,-0.030508488,-0.349950314,9.821044442
3.819387508,9.833903313,-0.016151553,-0.373878539,9.841021309
3.821753706,9.843474388,-0.035294134,-0.431306273,9.852982229
3.824119904,9.848259926,-0.025722843,-0.397806764,9.856324642
3.826485685,9.829116821,-0.016151553,-0.373878539,9.836238281
3.828851362,9.848259926,-0.001794617,-0.412163705,9.856881135
3.831217404,9.833903313,0.012562319,-0.460020155,9.844665089
3.833584018,9.853045464,0.012562319,-0.426520646,9.8622808
3.835950216,9.853045464,0.007776673,-0.407378048,9.861466537
3.838316779,9.872187614,0.022133609,-0.450448871,9.882483614
3.840683237,9.905687332,0.079561353,-0.393021107,9.913800337
3.843049487,9.93918705,0.079561353,-0.35473597,9.945833642
3.845415268,9.848259926,0.069990061,-0.316450804,9.85359139
3.847780737,9.79083252,0.093918286,-0.330807716,9.796869695
3.850146779,9.728618622,0.127417803,-0.287736923,9.733706803
3.852513081,9.747760773,0.089132644,-0.359521598,9.754795769
3.854879643,9.714262009,-0.011365907,-0.364307255,9.721097435
3.857245789,9.661619186,-0.020937199,-0.268594354,9.665374623
3.859612248,9.714262009,-0.030508488,-0.215952247,9.716709963
3.861978498,9.728618622,-0.097507522,-0.34037903,9.735059624
3.864344904,9.776474953,-0.126221389,-0.498305321,9.7899797
3.866710789,9.83868885,-0.111864455,-0.469591439,9.850524254
3.869076675,9.915258408,-0.092721879,-0.464805812,9.926580029
3.871442664,9.96790123,-0.068793654,-0.546161771,9.983089711
3.873808706,9.953543663,-0.064008005,-0.426520646,9.962883535
3.876174175,9.91047287,-0.030508488,-0.407378048,9.918889058
3.878540789,9.83868885,-0.016151553,-0.53180486,9.853064273
3.880906779,9.79083252,0.050847482,-0.412163705,9.799636004
3.883272612,9.800403595,0.084346995,-0.206380948,9.80293926
3.885638654,9.80997467,0.084346995,-0.196809664,9.812311221
3.888004852,9.73340416,0.089132644,-0.412163705,9.742534582
3.890371154,9.738189697,0.089132644,-0.378664196,9.745956586
3.892737612,9.757332802,0.065204419,-0.263808697,9.76111623
3.895103966,9.766903877,-0.064008005,-0.321236432,9.772394856
3.897470529,9.78126049,-0.092721879,-0.349950314,9.787957874
3.899836727,9.814760208,-0.044865426,-0.426520646,9.824125951
3.902201883,9.800403595,-0.020937199,-0.493519664,9.812844167
3.904567612,9.805189133,-0.049651071,-0.412163705,9.813973613
3.90693381,9.800403595,-0.102293171,-0.426520646,9.810213778
3.909299904,9.814760208,-0.035294134,-0.527019203,9.828962959
3.911665789,9.80997467,0.036490545,-0.555733085,9.825770904
3.914031727,9.776474953,-0.016151553,-0.416949332,9.785375318
3.916397664,9.853045464,-0.016151553,-0.402592421,9.861280162
3.918764227,9.881759644,0.098703936,-0.306879491,9.887016291
3.921129956,9.876974106,0.136989102,-0.215952247,9.880284352
3.923496258,9.829116821,0.127417803,-0.349950314,9.836169885
3.925862091,9.805189133,0.055633128,-0.469591439,9.816585205
3.928227404,9.752547264,0.007776673,-0.393021107,9.760466393
3.930593914,9.757332802,0.002991028,-0.297308207,9.761861734
3.932959435,9.833903313,-0.049651071,-0.316450804,9.839118899
3.935325008,9.886545181,-0.020937199,-0.402592421,9.89476097
3.937690893,9.948758125,-0.092721879,-0.38823548,9.956762143
3.94005756,9.93918705,-0.08793623,-0.326022089,9.944921437
3.942423081,9.867402077,-0.044865426,-0.316450804,9.872577058
3.944789279,9.752547264,0.012562319,-0.43609193,9.762300555
3.947154695,9.747760773,-0.030508488,-0.565304339,9.764186594
3.949520477,9.742975235,0.017347964,-0.469591439,9.754300769
3.951886466,9.766903877,0.022133609,-0.321236432,9.772210297
3.954252404,9.795618057,0.031704899,-0.359521598,9.802264744
3.956617612,9.833903313,0.069990061,-0.297308207,9.838645493
3.958983237,9.766903877,0.055633128,-0.259023041,9.770496371
3.961349175,9.719047546,0.050847482,-0.507876635,9.732441079
3.963715425,9.73340416,0.017347964,-0.53180486,9.747936904
3.966081258,9.79083252,0.007776673,-0.383449823,9.798341475
3.968447716,9.829116821,-0.030508488,-0.278165638,9.833099429
3.970814383,9.891330719,-0.064008005,-0.359521598,9.898069317
3.973180998,9.920044899,-0.064008005,-0.369092882,9.92711526
3.975546779,9.920044899,-0.025722843,-0.263808697,9.923585415
3.977913289,9.876974106,-0.025722843,-0.311665148,9.881923614
3.980279904,9.843474388,-0.054436713,-0.393021107,9.851467757
3.982645737,9.814760208,-0.020937199,-0.378664196,9.822084447
3.985011883,9.814760208,0.017347964,-0.426520646,9.824038821
3.98737881,9.766903877,0.031704899,-0.445663214,9.777117788
3.989744331,9.800403595,0.017347964,-0.345164657,9.806495308
3.992109956,9.786046028,0.04127619,-0.407378048,9.794608592
3.994476206,9.79083252,0.089132644,-0.455234498,9.801815368
3.996842873,9.853045464,0.065204419,-0.48394838,9.86513875
3.999208654,9.872187614,0.046061836,-0.479162723,9.883916577
4.001574435,9.91047287,0.012562319,-0.35473597,9.916827513
4.003939695,9.881759644,0.031704899,-0.292522579,9.886139202
4.006305164,9.814760208,0.074775711,-0.311665148,9.819992083
4.008671779,9.805189133,0.065204419,-0.34037903,9.811312014
4.011037352,9.757332802,0.036490545,-0.335593373,9.763170483
4.013402456,9.714262009,0.012562319,-0.335593373,9.72006518
4.015768133,9.695118904,-0.011365907,-0.311665148,9.700133757
4.018133966,9.63290596,0.050847482,-0.297308207,9.637627035
4.020499695,9.666405678,-0.020937199,-0.316450804,9.671606806
4.022865477,9.699904442,-0.054436713,-0.378664196,9.707445396
4.025231154,9.786046028,-0.111864455,-0.416949332,9.795563142
4.027597091,9.862616539,-0.08793623,-0.431306273,9.872434496
4.029963185,9.953543663,-0.035294134,-0.474377096,9.964903951
4.032329123,9.991828918,-0.054436713,-0.527019203,10.00586617
4.034694904,9.991828918,-0.078364938,-0.416949332,10.00083161
4.037060685,9.905687332,-0.068793654,-0.397806764,9.913910647
4.039427143,9.891330719,-0.011365907,-0.397806764,9.899333452
4.041793133,9.881759644,0.060418773,-0.225523531,9.884517436
4.044159175,9.905687332,0.074775711,-0.302093863,9.910574839
4.046524383,9.853045464,0.084346995,-0.469591439,9.864589978
4.048889956,9.776474953,0.103489578,-0.479162723,9.788757302
4.051255893,9.78126049,0.04127619,-0.364307255,9.78812956
4.05362157,9.73340416,0.031704899,-0.306879491,9.738292292
4.055987404,9.642477036,0.007776673,-0.38823548,9.650292775
4.058353393,9.666405678,-0.020937199,-0.369092882,9.673472316
4.060719643,9.671191216,0.036490545,-0.345164657,9.677417513
4.06308631,9.675976753,0.022133609,-0.335593373,9.681820022
4.065452508,9.70468998,-0.001794617,-0.278165638,9.708675859
4.067818498,9.76211834,0.046061836,-0.321236432,9.767510891
4.070184123,9.76211834,0.084346995,-0.378664196,9.769823717
4.07255032,9.829116821,0.017347964,-0.393021107,9.836986532
4.07491631,9.891330719,-0.08793623,-0.43609193,9.901329827
4.077282404,9.915258408,-0.08793623,-0.445663214,9.925658556
4.07964782,10.00139999,-0.044865426,-0.43609193,10.01100349
4.082013289,9.972686768,-0.011365907,-0.450448871,9.982861049
4.084379383,9.91047287,-0.011365907,-0.455234498,9.920929399
4.086745685,9.843474388,-0.035294134,-0.383449823,9.851003374
4.089112143,9.79083252,-0.001794617,-0.373878539,9.797968657
4.091477716,9.80997467,0.007776673,-0.316450804,9.815080469
4.093843445,9.848259926,0.060418773,-0.397806764,9.856476258
4.096209331,9.924830437,-0.011365907,-0.373878539,9.931876638
4.098574643,9.958329201,-0.020937199,-0.273379982,9.962102963
4.100940216,9.920044899,0.04127619,-0.254237413,9.92338809
4.103305529,9.829116821,0.074775711,-0.282951266,9.833472953
4.105670789,9.714262009,0.055633128,-0.38823548,9.722176104
4.108036675,9.637691498,-0.030508488,-0.412163705,9.646548973
4.110402768,9.623334885,-0.001794617,-0.335593373,9.629184827
4.112768133,9.680762291,0.026919255,-0.416949332,9.689774503
4.115134435,9.714262009,0.022133609,-0.493519664,9.726815405
4.117499643,9.800403595,-0.035294134,-0.479162723,9.812173725
4.119865998,9.853045464,-0.020937199,-0.460020155,9.863800577
4.122231987,9.857831001,0.012562319,-0.450448871,9.868125154
4.124598602,9.824331284,0.007776673,-0.412163705,9.832976384
4.126964591,9.833903313,-0.020937199,-0.378664196,9.841213304
4.129331518,9.829116821,-0.006580262,-0.282951266,9.833190846
4.131696779,9.872187614,0.036490545,-0.282951266,9.876309092
4.1340623,9.905687332,0.007776673,-0.345164657,9.911702207
4.136427612,9.905687332,0.022133609,-0.330807716,9.911234291
4.138792664,9.900901794,0.012562319,-0.278165638,9.904816519
4.141157664,9.857831001,0.002991028,-0.326022089,9.863221147
4.143523237,9.819545746,0.031704899,-0.383449823,9.827080829
4.145889018,9.819545746,0.007776673,-0.38823548,9.827220661
4.148254435,9.73340416,0.007776673,-0.349950314,9.739696208
4.150619695,9.714262009,-0.025722843,-0.383449823,9.721861026
4.152985216,9.742975235,0.007776673,-0.38823548,9.75071042
4.155350581,9.814760208,0.007776673,-0.378664196,9.82206521
4.157715945,9.881759644,0.002991028,-0.402592421,9.889957697
4.160081935,9.867402077,-0.001794617,-0.393021107,9.875226203
4.162447456,9.900901794,-0.035294134,-0.38823548,9.9085735
4.164813758,9.848259926,-0.016151553,-0.440877587,9.858136613
4.167179748,9.857831001,0.007776673,-0.460020155,9.868561753
4.169545998,9.800403595,0.031704899,-0.407378048,9.808918019
4.171911935,9.786046028,0.022133609,-0.38823548,9.793769119
4.174277768,9.766903877,0.084346995,-0.383449823,9.774792045
4.17664407,9.723833084,0.04127619,-0.373878539,9.73110573
4.179010373,9.738189697,0.012562319,-0.378664196,9.745557088
4.181376675,9.805189133,-0.011365907,-0.373878539,9.812321248
4.183742039,9.843474388,-0.011365907,-0.335593373,9.849199974
4.186107977,9.848259926,0.036490545,-0.316450804,9.853410386
4.188473862,9.881759644,0.017347964,-0.287736923,9.885963137
4.190839904,9.862616539,-0.020937199,-0.35473597,9.869016211
4.193206154,9.776474953,0.050847482,-0.359521598,9.783215409
4.195571935,9.843474388,-0.020937199,-0.412163705,9.852121869
4.197936987,9.848259926,-0.016151553,-0.426520646,9.857504973
4.200302508,9.891330719,0.017347964,-0.43609193,9.900954525
4.202668654,9.905687332,-0.020937199,-0.455234498,9.916164497
4.205034487,9.872187614,-0.011365907,-0.464805812,9.883130168
4.207400789,9.833903313,0.002991028,-0.402592421,9.842141229
4.209767091,9.79083252,0.046061836,-0.359521598,9.797539431
4.212133081,9.73340416,0.012562319,-0.474377096,9.744965263
4.214499018,9.695118904,0.022133609,-0.469591439,9.70651001
4.216864227,9.709476471,0.022133609,-0.38823548,9.717260418
4.219230008,9.776474953,-0.006580262,-0.335593373,9.782235364
4.22159605,9.833903313,-0.025722843,-0.287736923,9.838145586
4.223962091,9.857831001,-0.011365907,-0.273379982,9.861627546
4.226328237,9.83868885,-0.044865426,-0.326022089,9.844191262
4.228694539,9.800403595,-0.049651071,-0.378664196,9.807841884
4.231060685,9.771689415,0.002991028,-0.407378048,9.780177904
4.233426727,9.79083252,0.002991028,-0.378664196,9.798152731
4.235792352,9.819545746,0.017347964,-0.402592421,9.827810553
4.238157977,9.862616539,0.022133609,-0.369092882,9.869545301
4.24052381,9.853045464,-0.020937199,-0.278165638,9.856993426
4.2428898,9.867402077,-0.016151553,-0.311665148,9.872336085
4.245255112,9.848259926,-0.020937199,-0.335593373,9.853998419
4.24762105,9.843474388,-0.020937199,-0.359521598,9.850060009
4.249986779,9.819545746,-0.016151553,-0.359521598,9.826138372
4.252353029,9.819545746,0.026919255,-0.421734989,9.828634885
4.254719227,9.805189133,0.012562319,-0.440877587,9.815103911
4.257085477,9.848259926,-0.020937199,-0.426520646,9.857513976
4.25945131,9.857831001,0.036490545,-0.373878539,9.864986
4.2618173,9.83868885,-0.020937199,-0.416949332,9.847541998
4.264182977,9.78126049,-0.011365907,-0.407378048,9.789746822
4.266548237,9.766903877,0.046061836,-0.421734989,9.776113412
4.268914591,9.747760773,0.031704899,-0.397806764,9.755926174
4.271279956,9.76211834,0.036490545,-0.38823548,9.769903419
4.273646258,9.786046028,0.050847482,-0.383449823,9.793687564
4.276011727,9.843474388,0.002991028,-0.364307255,9.850214046
4.278377873,9.843474388,0.031704899,-0.330807716,9.849082545
4.28074381,9.843474388,-0.035294134,-0.326022089,9.848935176
4.283109279,9.848259926,-0.025722843,-0.35473597,9.854680251
4.285474487,9.805189133,0.002991028,-0.397806764,9.813255988
4.287840841,9.80997467,0.04127619,-0.402592421,9.818318971
4.290207248,9.766903877,0.017347964,-0.38823548,9.774632427
4.292572352,9.795618057,-0.001794617,-0.369092882,9.802569352
4.29493782,9.80997467,-0.001794617,-0.359521598,9.816560601
4.29730355,9.795618057,0.012562319,-0.345164657,9.801705442
4.299668914,9.79083252,0.002991028,-0.330807716,9.796419964
4.302034591,9.80997467,-0.016151553,-0.364307255,9.816750159
4.304399956,9.833903313,-0.001794617,-0.416949332,9.84273866
4.306765425,9.881759644,0.017347964,-0.416949332,9.890567292
4.309131102,9.891330719,0.022133609,-0.38823548,9.898971668
4.311496414,9.876974106,0.055633128,-0.373878539,9.884204454
4.313862248,9.848259926,0.002991028,-0.393021107,9.856099538
4.316227925,9.795618057,-0.001794617,-0.393021107,9.803499474
4.318594123,9.795618057,0.007776673,-0.378664196,9.802937324
4.32096006,9.776474953,0.002991028,-0.35473597,9.782909028
4.323325373,9.76211834,-0.006580262,-0.407378048,9.770616902
4.325691831,9.776474953,-0.030508488,-0.431306273,9.786031799
4.328058393,9.757332802,-0.011365907,-0.38823548,9.765060132
4.330424383,9.738189697,-0.016151553,-0.349950314,9.744488939
4.332790164,9.776474953,0.012562319,-0.35473597,9.782916637
4.335156154,9.786046028,-0.001794617,-0.306879491,9.79085671
4.337522456,9.829116821,-0.006580262,-0.282951266,9.833190846
4.339888133,9.829116821,0.04127619,-0.373878539,9.836311624
4.342254383,9.829116821,0.022133609,-0.397806764,9.837188501
4.344620789,9.848259926,0.012562319,-0.393021107,9.85610709
4.346986779,9.83868885,0.017347964,-0.38823548,9.846361055
4.34935282,9.824331284,0.017347964,-0.397806764,9.832397284
4.35171881,9.819545746,-0.006580262,-0.412163705,9.828194182
4.354084435,9.862616539,-0.011365907,-0.378664196,9.869889602
4.356450841,9.83868885,-0.025722843,-0.378664196,9.846006629
4.358815998,9.800403595,-0.030508488,-0.364307255,9.807219849
4.361181987,9.83868885,0.022133609,-0.38823548,9.84637065
4.363547352,9.78126049,0.007776673,-0.431306273,9.790768221
4.365912664,9.78126049,0.022133609,-0.445663214,9.791433112
4.368277716,9.76211834,0.002991028,-0.393021107,9.770027073
4.370643393,9.805189133,0.04127619,-0.373878539,9.81240148
4.373009435,9.78126049,0.022133609,-0.393021107,9.789178324
4.375375112,9.819545746,-0.025722843,-0.38823548,9.827251249
4.377740268,9.829116821,-0.020937199,-0.326022089,9.834544537
4.380106362,9.83868885,0.002991028,-0.302093863,9.843326061
4.382471206,9.819545746,0.022133609,-0.349950314,9.825804485
4.384836258,9.766903877,-0.006580262,-0.431306273,9.776424691
4.387202091,9.757332802,0.017347964,-0.426520646,9.766665973
4.389567768,9.786046028,-0.001794617,-0.378664196,9.793369525
4.391932977,9.83868885,0.017347964,-0.335593373,9.844425944
4.394298185,9.853045464,0.04127619,-0.345164657,9.859175791
4.396663029,9.833903313,0.026919255,-0.364307255,9.84068589
4.39902907,9.805189133,-0.006580262,-0.373878539,9.812316872
4.401394435,9.862616539,0.017347964,-0.349950314,9.86883839
4.403760164,9.857831001,0.012562319,-0.383449823,9.865293895
4.406126154,9.80997467,0.026919255,-0.431306273,9.819488417
4.408491883,9.833903313,0.022133609,-0.431306273,9.843382008
4.410857925,9.824331284,-0.001794617,-0.378664196,9.831626262
4.413223706,9.857831001,-0.020937199,-0.359521598,9.864407037
4.415589018,9.857831001,0.012562319,-0.34037903,9.863713689
4.417954591,9.80997467,0.012562319,-0.330807716,9.815558802
4.420319956,9.795618057,0.022133609,-0.359521598,9.802238459
4.422685893,9.757332802,0.012562319,-0.43609193,9.767081314
4.425051623,9.738189697,-0.016151553,-0.460020155,9.749062416
4.427417456,9.766903877,0.002991028,-0.402592421,9.775198256
4.429782977,9.78126049,-0.001794617,-0.345164657,9.787348908
4.432148341,9.83868885,-0.011365907,-0.407378048,9.84712569
4.434514123,9.857831001,-0.011365907,-0.349950314,9.864047164
4.4368798,9.843474388,0.012562319,-0.349950314,9.849701065
4.439245737,9.843474388,-0.001794617,-0.416949332,9.852301152
4.44161131,9.833903313,-0.020937199,-0.402592421,9.842163044
4.44397782,9.800403595,-0.044865426,-0.383449823,9.808004756
4.446344279,9.814760208,-0.006580262,-0.38823548,9.822437988
4.44871131,9.824331284,0.017347964,-0.378664196,9.831641404
4.45107782,9.833903313,0.002991028,-0.369092882,9.840827855
4.45344381,9.857831001,-0.011365907,-0.407378048,9.866251472
4.455809904,9.829116821,-0.016151553,-0.383449823,9.836606738
4.45817605,9.819545746,0.022133609,-0.35473597,9.825976092
4.460542143,9.80997467,-0.011365907,-0.373878539,9.817103309
4.462907977,9.766903877,0.036490545,-0.383449823,9.774496236
4.465273654,9.766903877,0.026919255,-0.373878539,9.774094391
4.467639695,9.829116821,0.017347964,-0.359521598,9.83570507
4.470005216,9.79083252,0.031704899,-0.345164657,9.796966126
4.472370529,9.805189133,0.04127619,-0.359521598,9.811864931
4.474736362,9.829116821,-0.006580262,-0.364307255,9.835868063
4.477101779,9.843474388,0.002991028,-0.402592421,9.851704301
4.479467716,9.757332802,-0.011365907,-0.402592421,9.765641466
4.481833706,9.771689415,-0.016151553,-0.412163705,9.780391292
4.484199852,9.786046028,-0.011365907,-0.373878539,9.793192085
4.486564956,9.814760208,-0.020937199,-0.397806764,9.822841062
4.48893006,9.805189133,-0.011365907,-0.416949332,9.814056748
4.491295841,9.833903313,0.022133609,-0.35473597,9.840324277
4.49366131,9.800403595,0.022133609,-0.364307255,9.807197372
4.496027195,9.800403595,0.012562319,-0.35473597,9.806829561
4.498392716,9.814760208,0.022133609,-0.35473597,9.821193688
4.500759331,9.795618057,-0.001794617,-0.359521598,9.802213634
4.503125268,9.800403595,0.012562319,-0.416949332,9.809276996
4.505490789,9.83868885,-0.016151553,-0.38823548,9.84635902
4.507856154,9.805189133,-0.016151553,-0.369092882,9.812146776
4.510222039,9.848259926,-0.04007978,-0.378664196,9.855618526
4.512587248,9.843474388,-0.020937199,-0.345164657,9.849546438
4.514952925,9.79083252,0.017347964,-0.35473597,9.797272069
4.517318498,9.747760773,0.017347964,-0.393021107,9.755696112
4.519683966,9.752547264,0.04127619,-0.407378048,9.761139213
4.522048914,9.80997467,0.026919255,-0.407378048,9.818466507
4.524414383,9.83868885,0.022133609,-0.397806764,9.846752684
4.526780477,9.848259926,-0.006580262,-0.393021107,9.856101281
4.52914657,9.862616539,0.026919255,-0.378664196,9.869919767
4.53151256,9.824331284,0.031704899,-0.402592421,9.83262788
4.533878393,9.79083252,0.046061836,-0.421734989,9.800019567
4.536244591,9.80997467,-0.016151553,-0.369092882,9.816928922
4.538610425,9.786046028,0.022133609,-0.316450804,9.791186234
4.540976675,9.786046028,-0.001794617,-0.369092882,9.793004117
4.5433423,9.872187614,-0.025722843,-0.35473597,9.878592388
4.545708237,9.833903313,0.002991028,-0.321236432,9.839149158
4.548074383,9.79083252,0.022133609,-0.359521598,9.797456155
4.550439852,9.805189133,0.012562319,-0.34037903,9.811103385
4.55280605,9.800403595,0.012562319,-0.311665148,9.805366062
4.555172248,9.80997467,0.012562319,-0.393021107,9.817852435
4.557537768,9.786046028,0.002991028,-0.402592421,9.794324197
4.55990355,9.79083252,0.012562319,-0.416949332,9.799714587
4.562269748,9.819545746,0.036490545,-0.421734989,9.82866576
4.564635373,9.833903313,0.002991028,-0.421734989,9.842942838
4.567000893,9.843474388,-0.020937199,-0.421734989,9.852526924
4.569366779,9.829116821,-0.001794617,-0.359521598,9.835689934
4.571732716,9.843474388,0.002991028,-0.38823548,9.851128045
4.574098706,9.80997467,0.017347964,-0.416949332,9.818846711
4.576464748,9.829116821,0.002991028,-0.369092882,9.836044733
4.578830529,9.786046028,0.012562319,-0.35473597,9.792481416
4.581196675,9.814760208,0.017347964,-0.373878539,9.821894118
4.583562664,9.776474953,0.04127619,-0.369092882,9.783526756
4.58592855,9.800403595,0.036490545,-0.364307255,9.807240283
4.588294695,9.786046028,-0.001794617,-0.393021107,9.793935148
4.590660529,9.814760208,0.026919255,-0.35473597,9.821205639
4.59302631,9.805189133,0.007776673,-0.364307255,9.811957714
4.595391206,9.814760208,0.002991028,-0.38823548,9.822436239
4.597756935,9.829116821,0.007776673,-0.416949332,9.837959377
4.600122508,9.848259926,0.04127619,-0.402592421,9.856571815
4.602488341,9.800403595,0.022133609,-0.373878539,9.80755758
